,task,block,trial,key_pressed,timestamp,coordinate,rt
0,nav,1,1,start,2021-11-10 22:57:16.637921-08:00,"(1.0, 1.0)",0
1,nav,1,1,right,2021-11-10 22:57:17.987936-08:00,"(2.0, 1.0)",1350.0149999999999
2,nav,1,1,right,2021-11-10 22:57:18.156880-08:00,"(3.0, 1.0)",168.94400000000002
3,nav,1,1,right,2021-11-10 22:57:18.325466-08:00,"(4.0, 1.0)",168.586
4,nav,1,1,right,2021-11-10 22:57:18.485867-08:00,"(5.0, 1.0)",160.40099999999998
5,nav,1,1,down,2021-11-10 22:57:18.770891-08:00,"(5.0, 2.0)",285.024
6,nav,1,1,down,2021-11-10 22:57:18.922930-08:00,"(5.0, 3.0)",152.03900000000002
7,nav,1,1,down,2021-11-10 22:57:19.095763-08:00,"(5.0, 4.0)",172.833
8,nav,1,1,down,2021-11-10 22:57:19.191072-08:00,"(5.0, 5.0)",95.30900000000001
9,nav,1,1,left,2021-11-10 22:57:19.561456-08:00,"(4.0, 5.0)",370.384
10,nav,1,1,left,2021-11-10 22:57:19.714951-08:00,"(3.0, 5.0)",153.495
11,nav,1,1,down,2021-11-10 22:57:19.992960-08:00,"(3.0, 6.0)",278.009
12,nav,1,1,down,2021-11-10 22:57:20.307044-08:00,"(3.0, 7.0)",314.08399999999995
13,nav,1,1,right,2021-11-10 22:57:20.631797-08:00,"(4.0, 7.0)",324.753
14,nav,1,1,right,2021-11-10 22:57:20.788334-08:00,"(5.0, 7.0)",156.537
15,nav,1,1,right,2021-11-10 22:57:20.969443-08:00,"(6.0, 7.0)",181.10899999999998
16,nav,1,1,right,2021-11-10 22:57:21.147352-08:00,"(7.0, 7.0)",177.90900000000002
17,nav,1,1,right,2021-11-10 22:57:21.483201-08:00,"(8.0, 7.0)",335.849
18,nav,1,1,up,2021-11-10 22:57:21.740942-08:00,"(8.0, 6.0)",257.741
19,nav,1,1,up,2021-11-10 22:57:21.913851-08:00,"(8.0, 5.0)",172.90900000000002
20,nav,1,2,start,2021-11-10 22:57:22.943475-08:00,"(1.0, 1.0)",0
21,nav,1,2,right,2021-11-10 22:57:23.544188-08:00,"(2.0, 1.0)",600.7130000000001
22,nav,1,2,down,2021-11-10 22:57:23.843529-08:00,"(2.0, 2.0)",299.341
23,nav,1,2,down,2021-11-10 22:57:23.987556-08:00,"(2.0, 3.0)",144.027
24,nav,1,2,down,2021-11-10 22:57:24.121140-08:00,"(2.0, 4.0)",133.584
25,nav,1,2,right,2021-11-10 22:57:24.396552-08:00,"(3.0, 4.0)",275.412
26,nav,1,2,right,2021-11-10 22:57:24.595922-08:00,"(4.0, 4.0)",199.37
27,nav,1,2,up,2021-11-10 22:57:24.815857-08:00,"(4.0, 3.0)",219.935
28,nav,1,2,up,2021-11-10 22:57:24.980025-08:00,"(4.0, 2.0)",164.168
29,nav,1,2,up,2021-11-10 22:57:25.082227-08:00,"(4.0, 1.0)",102.202
30,nav,1,3,start,2021-11-10 22:57:26.125143-08:00,"(1.0, 1.0)",0
31,nav,1,3,right,2021-11-10 22:57:26.125318-08:00,"(2.0, 1.0)",0.175
32,nav,1,3,right,2021-11-10 22:57:26.664118-08:00,"(3.0, 1.0)",538.8
33,nav,1,3,right,2021-11-10 22:57:27.050477-08:00,"(4.0, 1.0)",386.359
34,nav,1,3,right,2021-11-10 22:57:27.257406-08:00,"(5.0, 1.0)",206.929
35,nav,1,3,down,2021-11-10 22:57:27.526877-08:00,"(5.0, 2.0)",269.471
36,nav,1,3,down,2021-11-10 22:57:27.675821-08:00,"(5.0, 3.0)",148.944
37,nav,1,3,left,2021-11-10 22:57:27.932013-08:00,"(4.0, 3.0)",256.19199999999995
38,nav,1,3,left,2021-11-10 22:57:28.097022-08:00,"(3.0, 3.0)",165.009
39,nav,1,3,left,2021-11-10 22:57:28.239892-08:00,"(2.0, 3.0)",142.87
40,nav,1,3,down,2021-11-10 22:57:28.492480-08:00,"(2.0, 4.0)",252.58799999999997
41,nav,1,3,down,2021-11-10 22:57:28.674806-08:00,"(2.0, 5.0)",182.326
42,nav,1,4,start,2021-11-10 22:57:29.694613-08:00,"(1.0, 1.0)",0
43,nav,1,4,right,2021-11-10 22:57:30.266117-08:00,"(2.0, 1.0)",571.504
44,nav,1,4,down,2021-11-10 22:57:30.511900-08:00,"(2.0, 2.0)",245.78300000000002
45,nav,1,4,down,2021-11-10 22:57:30.669118-08:00,"(2.0, 3.0)",157.218
46,nav,1,4,down,2021-11-10 22:57:30.836119-08:00,"(2.0, 4.0)",167.001
47,nav,1,4,down,2021-11-10 22:57:30.993758-08:00,"(2.0, 5.0)",157.639
48,nav,1,4,down,2021-11-10 22:57:31.121541-08:00,"(2.0, 6.0)",127.783
49,nav,1,4,right,2021-11-10 22:57:31.404052-08:00,"(3.0, 6.0)",282.511
50,nav,1,4,right,2021-11-10 22:57:31.567355-08:00,"(4.0, 6.0)",163.303
51,nav,1,4,right,2021-11-10 22:57:31.737209-08:00,"(5.0, 6.0)",169.854
52,nav,1,4,right,2021-11-10 22:57:32.077446-08:00,"(6.0, 6.0)",340.237
53,nav,1,4,up,2021-11-10 22:57:32.338953-08:00,"(6.0, 5.0)",261.507
54,nav,1,4,up,2021-11-10 22:57:32.490506-08:00,"(6.0, 4.0)",151.553
55,nav,1,4,left,2021-11-10 22:57:32.786609-08:00,"(5.0, 4.0)",296.103
56,nav,1,4,left,2021-11-10 22:57:32.940828-08:00,"(4.0, 4.0)",154.219
57,nav,1,4,up,2021-11-10 22:57:33.195888-08:00,"(4.0, 3.0)",255.06
58,nav,1,5,start,2021-11-10 22:57:34.219605-08:00,"(1.0, 1.0)",0
59,nav,1,5,right,2021-11-10 22:57:34.729583-08:00,"(2.0, 1.0)",509.97800000000007
60,nav,1,5,right,2021-11-10 22:57:34.905720-08:00,"(3.0, 1.0)",176.137
61,nav,1,5,right,2021-11-10 22:57:35.076995-08:00,"(4.0, 1.0)",171.275
62,nav,1,5,right,2021-11-10 22:57:35.344485-08:00,"(5.0, 1.0)",267.49
63,nav,1,5,right,2021-11-10 22:57:35.896466-08:00,"(6.0, 1.0)",551.9810000000001
64,nav,1,5,left,2021-11-10 22:57:36.314731-08:00,"(5.0, 1.0)",418.265
65,nav,1,5,down,2021-11-10 22:57:36.585757-08:00,"(5.0, 2.0)",271.026
66,nav,1,5,down,2021-11-10 22:57:36.760641-08:00,"(5.0, 3.0)",174.88400000000001
67,nav,1,5,down,2021-11-10 22:57:36.952598-08:00,"(5.0, 4.0)",191.957
68,nav,1,5,down,2021-11-10 22:57:37.101926-08:00,"(5.0, 5.0)",149.32799999999997
69,nav,1,5,down,2021-11-10 22:57:37.587057-08:00,"(5.0, 6.0)",485.131
70,nav,1,5,down,2021-11-10 22:57:37.929330-08:00,"(5.0, 7.0)",342.27299999999997
71,nav,1,5,left,2021-11-10 22:57:38.573550-08:00,"(4.0, 7.0)",644.22
72,nav,1,5,left,2021-11-10 22:57:38.781429-08:00,"(3.0, 7.0)",207.87900000000002
73,nav,1,5,left,2021-11-10 22:57:39.138669-08:00,"(2.0, 7.0)",357.24
74,nav,1,5,left,2021-11-10 22:57:39.433081-08:00,"(1.0, 7.0)",294.41200000000003
75,nav,1,5,right,2021-11-10 22:57:40.033837-08:00,"(2.0, 7.0)",600.756
76,nav,1,5,right,2021-11-10 22:57:40.241208-08:00,"(3.0, 7.0)",207.371
77,nav,1,5,right,2021-11-10 22:57:40.404224-08:00,"(4.0, 7.0)",163.016
78,nav,1,5,right,2021-11-10 22:57:40.571199-08:00,"(5.0, 7.0)",166.97500000000002
79,nav,1,5,up,2021-11-10 22:57:40.824914-08:00,"(5.0, 6.0)",253.71500000000003
80,nav,1,5,right,2021-11-10 22:57:41.061548-08:00,"(6.0, 6.0)",236.63400000000001
81,nav,1,5,right,2021-11-10 22:57:41.251041-08:00,"(7.0, 6.0)",189.493
82,nav,1,5,up,2021-11-10 22:57:41.616268-08:00,"(7.0, 5.0)",365.22700000000003
83,nav,1,6,start,2021-11-10 22:57:42.653065-08:00,"(1.0, 1.0)",0
84,nav,1,6,right,2021-11-10 22:57:43.280865-08:00,"(2.0, 1.0)",627.8000000000001
85,nav,1,6,down,2021-11-10 22:57:43.839335-08:00,"(2.0, 2.0)",558.47
86,nav,1,6,down,2021-11-10 22:57:44.011908-08:00,"(2.0, 3.0)",172.573
87,nav,1,6,left,2021-11-10 22:57:44.265225-08:00,"(1.0, 3.0)",253.317
88,nav,1,6,down,2021-11-10 22:57:44.513835-08:00,"(1.0, 4.0)",248.60999999999999
89,nav,1,6,down,2021-11-10 22:57:44.667005-08:00,"(1.0, 5.0)",153.17
90,nav,1,6,right,2021-11-10 22:57:45.074212-08:00,"(2.0, 5.0)",407.207
91,nav,1,6,right,2021-11-10 22:57:45.243269-08:00,"(3.0, 5.0)",169.05700000000002
92,nav,1,6,right,2021-11-10 22:57:45.799106-08:00,"(4.0, 5.0)",555.837
93,nav,1,6,up,2021-11-10 22:57:46.051671-08:00,"(4.0, 4.0)",252.565
94,nav,1,6,up,2021-11-10 22:57:46.207935-08:00,"(4.0, 3.0)",156.26399999999998
95,nav,1,6,up,2021-11-10 22:57:46.363573-08:00,"(4.0, 2.0)",155.638
96,nav,1,6,up,2021-11-10 22:57:46.738391-08:00,"(4.0, 1.0)",374.818
97,nav,1,6,right,2021-11-10 22:57:47.002438-08:00,"(5.0, 1.0)",264.04699999999997
98,nav,1,6,right,2021-11-10 22:57:47.195138-08:00,"(6.0, 1.0)",192.70000000000002
99,nav,1,6,right,2021-11-10 22:57:47.388836-08:00,"(7.0, 1.0)",193.698
100,nav,1,6,left,2021-11-10 22:57:47.836659-08:00,"(6.0, 1.0)",447.82300000000004
101,nav,1,6,down,2021-11-10 22:57:48.060799-08:00,"(6.0, 2.0)",224.14000000000001
102,nav,1,7,start,2021-11-10 22:57:49.085435-08:00,"(1.0, 1.0)",0
103,nav,1,7,right,2021-11-10 22:57:49.640148-08:00,"(2.0, 1.0)",554.713
104,nav,1,7,right,2021-11-10 22:57:50.196334-08:00,"(3.0, 1.0)",556.1859999999999
105,nav,1,7,down,2021-11-10 22:57:50.432682-08:00,"(3.0, 2.0)",236.348
106,nav,1,7,down,2021-11-10 22:57:50.608882-08:00,"(3.0, 3.0)",176.2
107,nav,1,7,right,2021-11-10 22:57:50.867744-08:00,"(4.0, 3.0)",258.86199999999997
108,nav,1,7,down,2021-11-10 22:57:51.137232-08:00,"(4.0, 4.0)",269.488
109,nav,1,7,down,2021-11-10 22:57:51.304555-08:00,"(4.0, 5.0)",167.323
110,nav,1,7,right,2021-11-10 22:57:51.572502-08:00,"(5.0, 5.0)",267.947
111,nav,1,7,right,2021-11-10 22:57:52.108338-08:00,"(6.0, 5.0)",535.836
112,nav,1,7,down,2021-11-10 22:57:52.355371-08:00,"(6.0, 6.0)",247.03300000000002
113,nav,1,7,down,2021-11-10 22:57:52.682761-08:00,"(6.0, 7.0)",327.39
114,nav,1,7,left,2021-11-10 22:57:53.032846-08:00,"(5.0, 7.0)",350.085
115,nav,1,7,left,2021-11-10 22:57:53.171660-08:00,"(4.0, 7.0)",138.814
116,nav,1,7,left,2021-11-10 22:57:53.320695-08:00,"(3.0, 7.0)",149.035
117,nav,1,7,left,2021-11-10 22:57:53.598339-08:00,"(2.0, 7.0)",277.644
118,nav,1,7,up,2021-11-10 22:57:53.937263-08:00,"(2.0, 6.0)",338.924
119,nav,1,7,down,2021-11-10 22:57:54.364529-08:00,"(2.0, 7.0)",427.26599999999996
120,nav,1,7,left,2021-11-10 22:57:54.576660-08:00,"(1.0, 7.0)",212.131
121,nav,1,8,start,2021-11-10 22:57:55.599342-08:00,"(1.0, 1.0)",0
122,nav,1,8,right,2021-11-10 22:57:56.180374-08:00,"(2.0, 1.0)",581.032
123,nav,1,8,right,2021-11-10 22:57:56.373752-08:00,"(3.0, 1.0)",193.378
124,nav,1,8,down,2021-11-10 22:57:56.737749-08:00,"(3.0, 2.0)",363.997
125,nav,1,8,down,2021-11-10 22:57:56.908454-08:00,"(3.0, 3.0)",170.70499999999998
126,nav,1,8,down,2021-11-10 22:57:57.058468-08:00,"(3.0, 4.0)",150.014
127,nav,1,8,down,2021-11-10 22:57:57.417727-08:00,"(3.0, 5.0)",359.259
128,nav,1,8,right,2021-11-10 22:57:57.700586-08:00,"(4.0, 5.0)",282.85900000000004
129,nav,1,8,right,2021-11-10 22:57:57.883478-08:00,"(5.0, 5.0)",182.892
130,nav,1,8,right,2021-11-10 22:57:58.041901-08:00,"(6.0, 5.0)",158.423
131,nav,1,8,right,2021-11-10 22:57:58.220910-08:00,"(7.0, 5.0)",179.00900000000001
132,nav,1,8,up,2021-11-10 22:57:58.491135-08:00,"(7.0, 4.0)",270.22499999999997
133,nav,1,8,up,2021-11-10 22:57:58.637219-08:00,"(7.0, 3.0)",146.084
134,quiz,1,1,,,"(2.0, 3.0)",
135,quiz,1,2,,,"(4.0, 4.0)",
136,quiz,1,3,,,"(2.0, 4.0)",
137,quiz,1,4,,,"(4.0, 3.0)",
138,quiz,1,5,,,"(2.0, 3.0)",
139,quiz,1,6,,,"(3.0, 3.0)",
140,quiz,1,7,,,"(4.0, 3.0)",
141,quiz,1,8,,,"(2.0, 3.0)",
142,nav,2,1,start,2021-11-10 22:58:41.477526-08:00,"(1.0, 1.0)",0
143,nav,2,1,right,2021-11-10 22:58:42.676332-08:00,"(2.0, 1.0)",1198.806
144,nav,2,1,right,2021-11-10 22:58:42.871189-08:00,"(3.0, 1.0)",194.857
145,nav,2,1,right,2021-11-10 22:58:43.001573-08:00,"(4.0, 1.0)",130.384
146,nav,2,1,down,2021-11-10 22:58:43.452183-08:00,"(4.0, 2.0)",450.61
147,nav,2,1,down,2021-11-10 22:58:43.621895-08:00,"(4.0, 3.0)",169.712
148,nav,2,1,down,2021-11-10 22:58:43.798524-08:00,"(4.0, 4.0)",176.62900000000002
149,nav,2,1,up,2021-11-10 22:58:44.146896-08:00,"(4.0, 3.0)",348.372
150,nav,2,1,left,2021-11-10 22:58:44.478408-08:00,"(3.0, 3.0)",331.512
151,nav,2,1,left,2021-11-10 22:58:44.643468-08:00,"(2.0, 3.0)",165.06
152,nav,2,1,left,2021-11-10 22:58:45.049786-08:00,"(1.0, 3.0)",406.31800000000004
153,nav,2,1,down,2021-11-10 22:58:45.306474-08:00,"(1.0, 4.0)",256.68800000000005
154,nav,2,1,down,2021-11-10 22:58:45.476627-08:00,"(1.0, 5.0)",170.153
155,nav,2,1,right,2021-11-10 22:58:45.740308-08:00,"(2.0, 5.0)",263.681
156,nav,2,1,left,2021-11-10 22:58:46.136664-08:00,"(1.0, 5.0)",396.356
157,nav,2,1,up,2021-11-10 22:58:46.395047-08:00,"(1.0, 4.0)",258.383
158,nav,2,1,up,2021-11-10 22:58:46.563809-08:00,"(1.0, 3.0)",168.762
159,nav,2,1,right,2021-11-10 22:58:46.803998-08:00,"(2.0, 3.0)",240.18900000000002
160,nav,2,1,right,2021-11-10 22:58:46.987688-08:00,"(3.0, 3.0)",183.69
161,nav,2,1,right,2021-11-10 22:58:47.162122-08:00,"(4.0, 3.0)",174.434
162,nav,2,1,down,2021-11-10 22:58:47.457688-08:00,"(4.0, 4.0)",295.566
163,nav,2,1,down,2021-11-10 22:58:47.650585-08:00,"(4.0, 5.0)",192.89700000000002
164,nav,2,1,down,2021-11-10 22:58:47.786862-08:00,"(4.0, 6.0)",136.27700000000002
165,nav,2,1,down,2021-11-10 22:58:47.954730-08:00,"(4.0, 7.0)",167.868
166,nav,2,1,right,2021-11-10 22:58:48.221482-08:00,"(5.0, 7.0)",266.752
167,nav,2,1,right,2021-11-10 22:58:48.556185-08:00,"(6.0, 7.0)",334.703
168,nav,2,2,start,2021-11-10 22:58:49.590704-08:00,"(1.0, 1.0)",0
169,nav,2,2,right,2021-11-10 22:58:50.013166-08:00,"(2.0, 1.0)",422.462
170,nav,2,2,right,2021-11-10 22:58:50.219080-08:00,"(3.0, 1.0)",205.91400000000002
171,nav,2,2,right,2021-11-10 22:58:50.353646-08:00,"(4.0, 1.0)",134.566
172,nav,2,2,right,2021-11-10 22:58:50.549791-08:00,"(5.0, 1.0)",196.145
173,nav,2,2,right,2021-11-10 22:58:50.718432-08:00,"(6.0, 1.0)",168.64100000000002
174,nav,2,2,left,2021-11-10 22:58:51.078255-08:00,"(5.0, 1.0)",359.823
175,nav,2,2,down,2021-11-10 22:58:51.293708-08:00,"(5.0, 2.0)",215.453
176,nav,2,2,down,2021-11-10 22:58:51.466612-08:00,"(5.0, 3.0)",172.904
177,nav,2,2,down,2021-11-10 22:58:51.637035-08:00,"(5.0, 4.0)",170.423
178,nav,2,2,down,2021-11-10 22:58:51.786064-08:00,"(5.0, 5.0)",149.029
179,nav,2,2,down,2021-11-10 22:58:51.963704-08:00,"(5.0, 6.0)",177.64
180,nav,2,2,left,2021-11-10 22:58:52.337290-08:00,"(4.0, 6.0)",373.58599999999996
181,nav,2,3,start,2021-11-10 22:58:53.359138-08:00,"(1.0, 1.0)",0
182,nav,2,3,right,2021-11-10 22:58:53.842201-08:00,"(2.0, 1.0)",483.06300000000005
183,nav,2,3,right,2021-11-10 22:58:54.025677-08:00,"(3.0, 1.0)",183.476
184,nav,2,3,right,2021-11-10 22:58:54.203013-08:00,"(4.0, 1.0)",177.33599999999998
185,nav,2,3,down,2021-11-10 22:58:54.456696-08:00,"(4.0, 2.0)",253.683
186,nav,2,3,down,2021-11-10 22:58:54.629549-08:00,"(4.0, 3.0)",172.853
187,nav,2,3,down,2021-11-10 22:58:54.781638-08:00,"(4.0, 4.0)",152.089
188,nav,2,3,down,2021-11-10 22:58:54.953826-08:00,"(4.0, 5.0)",172.18800000000002
189,nav,2,3,right,2021-11-10 22:58:55.194782-08:00,"(5.0, 5.0)",240.95600000000002
190,nav,2,3,down,2021-11-10 22:58:55.450828-08:00,"(5.0, 6.0)",256.046
191,nav,2,3,down,2021-11-10 22:58:55.638171-08:00,"(5.0, 7.0)",187.34300000000002
192,nav,2,3,right,2021-11-10 22:58:56.007053-08:00,"(6.0, 7.0)",368.882
193,nav,2,3,right,2021-11-10 22:58:56.207945-08:00,"(7.0, 7.0)",200.892
194,nav,2,3,right,2021-11-10 22:58:56.350252-08:00,"(8.0, 7.0)",142.307
195,nav,2,3,up,2021-11-10 22:58:56.668409-08:00,"(8.0, 6.0)",318.15700000000004
196,nav,2,3,right,2021-11-10 22:58:56.962277-08:00,"(9.0, 6.0)",293.868
197,nav,2,3,up,2021-11-10 22:58:57.246800-08:00,"(9.0, 5.0)",284.523
198,nav,2,3,up,2021-11-10 22:58:57.539912-08:00,"(9.0, 4.0)",293.11199999999997
199,nav,2,3,left,2021-11-10 22:58:57.799209-08:00,"(8.0, 4.0)",259.297
200,nav,2,3,up,2021-11-10 22:58:58.075897-08:00,"(8.0, 3.0)",276.688
201,nav,2,4,start,2021-11-10 22:58:59.099942-08:00,"(1.0, 1.0)",0
202,nav,2,4,right,2021-11-10 22:58:59.559669-08:00,"(2.0, 1.0)",459.727
203,nav,2,4,down,2021-11-10 22:58:59.812100-08:00,"(2.0, 2.0)",252.431
204,nav,2,4,down,2021-11-10 22:58:59.961130-08:00,"(2.0, 3.0)",149.03
205,nav,2,4,down,2021-11-10 22:59:00.124897-08:00,"(2.0, 4.0)",163.767
206,nav,2,4,left,2021-11-10 22:59:00.361246-08:00,"(1.0, 4.0)",236.349
207,nav,2,4,down,2021-11-10 22:59:00.645836-08:00,"(1.0, 5.0)",284.59000000000003
208,nav,2,4,down,2021-11-10 22:59:00.807096-08:00,"(1.0, 6.0)",161.26
209,nav,2,4,down,2021-11-10 22:59:00.964467-08:00,"(1.0, 7.0)",157.371
210,nav,2,4,right,2021-11-10 22:59:01.232884-08:00,"(2.0, 7.0)",268.41700000000003
211,nav,2,4,right,2021-11-10 22:59:01.410848-08:00,"(3.0, 7.0)",177.964
212,nav,2,4,right,2021-11-10 22:59:01.587852-08:00,"(4.0, 7.0)",177.004
213,nav,2,4,left,2021-11-10 22:59:01.961876-08:00,"(3.0, 7.0)",374.024
214,nav,2,4,up,2021-11-10 22:59:02.189181-08:00,"(3.0, 6.0)",227.305
215,nav,2,5,start,2021-11-10 22:59:03.215483-08:00,"(1.0, 1.0)",0
216,nav,2,5,right,2021-11-10 22:59:03.742226-08:00,"(2.0, 1.0)",526.7429999999999
217,nav,2,5,down,2021-11-10 22:59:04.060966-08:00,"(2.0, 2.0)",318.74
218,nav,2,5,down,2021-11-10 22:59:04.212163-08:00,"(2.0, 3.0)",151.197
219,nav,2,5,left,2021-11-10 22:59:04.427668-08:00,"(1.0, 3.0)",215.505
220,nav,2,5,down,2021-11-10 22:59:04.688083-08:00,"(1.0, 4.0)",260.415
221,nav,2,5,down,2021-11-10 22:59:04.855107-08:00,"(1.0, 5.0)",167.024
222,nav,2,5,right,2021-11-10 22:59:05.198825-08:00,"(2.0, 5.0)",343.718
223,nav,2,5,right,2021-11-10 22:59:05.373857-08:00,"(3.0, 5.0)",175.03199999999998
224,nav,2,5,right,2021-11-10 22:59:05.562928-08:00,"(4.0, 5.0)",189.071
225,nav,2,5,right,2021-11-10 22:59:05.773742-08:00,"(5.0, 5.0)",210.814
226,nav,2,5,up,2021-11-10 22:59:06.013853-08:00,"(5.0, 4.0)",240.111
227,nav,2,5,up,2021-11-10 22:59:06.179108-08:00,"(5.0, 3.0)",165.25500000000002
228,nav,2,5,up,2021-11-10 22:59:06.334760-08:00,"(5.0, 2.0)",155.65200000000002
229,nav,2,5,up,2021-11-10 22:59:06.502079-08:00,"(5.0, 1.0)",167.319
230,nav,2,5,right,2021-11-10 22:59:06.971569-08:00,"(6.0, 1.0)",469.49
231,nav,2,6,start,2021-11-10 22:59:08.010996-08:00,"(1.0, 1.0)",0
232,nav,2,6,right,2021-11-10 22:59:08.489786-08:00,"(2.0, 1.0)",478.79
233,nav,2,6,right,2021-11-10 22:59:08.665572-08:00,"(3.0, 1.0)",175.786
234,nav,2,6,right,2021-11-10 22:59:08.986306-08:00,"(4.0, 1.0)",320.73400000000004
235,nav,2,6,right,2021-11-10 22:59:09.154326-08:00,"(5.0, 1.0)",168.02
236,nav,2,6,right,2021-11-10 22:59:09.326177-08:00,"(6.0, 1.0)",171.851
237,nav,2,6,down,2021-11-10 22:59:09.653806-08:00,"(6.0, 2.0)",327.629
238,nav,2,6,down,2021-11-10 22:59:09.856738-08:00,"(6.0, 3.0)",202.932
239,nav,2,6,down,2021-11-10 22:59:10.000600-08:00,"(6.0, 4.0)",143.862
240,nav,2,6,down,2021-11-10 22:59:10.162787-08:00,"(6.0, 5.0)",162.187
241,nav,2,6,down,2021-11-10 22:59:10.313985-08:00,"(6.0, 6.0)",151.198
242,nav,2,6,down,2021-11-10 22:59:10.447489-08:00,"(6.0, 7.0)",133.50400000000002
243,nav,2,6,left,2021-11-10 22:59:10.742138-08:00,"(5.0, 7.0)",294.649
244,nav,2,6,left,2021-11-10 22:59:10.888331-08:00,"(4.0, 7.0)",146.19299999999998
245,nav,2,6,up,2021-11-10 22:59:11.297065-08:00,"(4.0, 6.0)",408.734
246,nav,2,6,up,2021-11-10 22:59:11.444176-08:00,"(4.0, 5.0)",147.111
247,nav,2,6,left,2021-11-10 22:59:11.886555-08:00,"(3.0, 5.0)",442.379
248,nav,2,6,left,2021-11-10 22:59:12.065932-08:00,"(2.0, 5.0)",179.377
249,nav,2,6,left,2021-11-10 22:59:12.274827-08:00,"(1.0, 5.0)",208.895
250,nav,2,6,up,2021-11-10 22:59:12.597869-08:00,"(1.0, 4.0)",323.042
251,nav,2,6,up,2021-11-10 22:59:12.774434-08:00,"(1.0, 3.0)",176.565
252,nav,2,6,right,2021-11-10 22:59:13.057992-08:00,"(2.0, 3.0)",283.558
253,nav,2,6,right,2021-11-10 22:59:13.236233-08:00,"(3.0, 3.0)",178.241
254,nav,2,7,start,2021-11-10 22:59:14.261934-08:00,"(1.0, 1.0)",0
255,nav,2,7,right,2021-11-10 22:59:14.804599-08:00,"(2.0, 1.0)",542.665
256,nav,2,7,right,2021-11-10 22:59:14.996270-08:00,"(3.0, 1.0)",191.67100000000002
257,nav,2,7,right,2021-11-10 22:59:15.147021-08:00,"(4.0, 1.0)",150.751
258,nav,2,7,right,2021-11-10 22:59:15.530801-08:00,"(5.0, 1.0)",383.78000000000003
259,nav,2,7,down,2021-11-10 22:59:15.989368-08:00,"(5.0, 2.0)",458.567
260,nav,2,7,down,2021-11-10 22:59:16.147411-08:00,"(5.0, 3.0)",158.04299999999998
261,nav,2,7,down,2021-11-10 22:59:16.317100-08:00,"(5.0, 4.0)",169.689
262,nav,2,7,down,2021-11-10 22:59:16.547446-08:00,"(5.0, 5.0)",230.346
263,nav,2,7,down,2021-11-10 22:59:16.708193-08:00,"(5.0, 6.0)",160.747
264,nav,2,7,down,2021-11-10 22:59:17.358667-08:00,"(5.0, 7.0)",650.474
265,nav,2,7,left,2021-11-10 22:59:17.648928-08:00,"(4.0, 7.0)",290.26099999999997
266,nav,2,7,left,2021-11-10 22:59:17.812932-08:00,"(3.0, 7.0)",164.00400000000002
267,nav,2,7,up,2021-11-10 22:59:18.108905-08:00,"(3.0, 6.0)",295.973
268,nav,2,7,up,2021-11-10 22:59:18.314477-08:00,"(3.0, 5.0)",205.572
269,nav,2,7,up,2021-11-10 22:59:18.781337-08:00,"(3.0, 4.0)",466.86
270,nav,2,7,up,2021-11-10 22:59:18.935173-08:00,"(3.0, 3.0)",153.836
271,nav,2,7,right,2021-11-10 22:59:19.249679-08:00,"(4.0, 3.0)",314.50600000000003
272,nav,2,7,right,2021-11-10 22:59:19.429788-08:00,"(5.0, 3.0)",180.10899999999998
273,nav,2,7,right,2021-11-10 22:59:19.601647-08:00,"(6.0, 3.0)",171.859
274,nav,2,7,right,2021-11-10 22:59:19.757580-08:00,"(7.0, 3.0)",155.933
275,nav,2,7,down,2021-11-10 22:59:20.070737-08:00,"(7.0, 4.0)",313.15700000000004
276,nav,2,7,right,2021-11-10 22:59:20.457005-08:00,"(8.0, 4.0)",386.268
277,nav,2,7,down,2021-11-10 22:59:20.856721-08:00,"(8.0, 5.0)",399.716
278,nav,2,7,right,2021-11-10 22:59:21.101482-08:00,"(9.0, 5.0)",244.761
279,nav,2,7,down,2021-11-10 22:59:21.406266-08:00,"(9.0, 6.0)",304.784
280,nav,2,7,down,2021-11-10 22:59:21.594152-08:00,"(9.0, 7.0)",187.886
281,nav,2,7,left,2021-11-10 22:59:21.894416-08:00,"(8.0, 7.0)",300.26399999999995
282,nav,2,7,left,2021-11-10 22:59:22.426700-08:00,"(7.0, 7.0)",532.284
283,nav,2,7,up,2021-11-10 22:59:22.907979-08:00,"(7.0, 6.0)",481.279
284,nav,2,8,start,2021-11-10 22:59:23.930183-08:00,"(1.0, 1.0)",0
285,nav,2,8,right,2021-11-10 22:59:24.572040-08:00,"(2.0, 1.0)",641.857
286,nav,2,8,down,2021-11-10 22:59:24.850324-08:00,"(2.0, 2.0)",278.284
287,nav,2,8,down,2021-11-10 22:59:25.004461-08:00,"(2.0, 3.0)",154.137
288,nav,2,8,left,2021-11-10 22:59:25.236922-08:00,"(1.0, 3.0)",232.461
289,nav,2,8,down,2021-11-10 22:59:25.462100-08:00,"(1.0, 4.0)",225.178
290,nav,2,8,down,2021-11-10 22:59:25.647694-08:00,"(1.0, 5.0)",185.59400000000002
291,nav,2,8,right,2021-11-10 22:59:26.526320-08:00,"(2.0, 5.0)",878.626
292,nav,2,8,right,2021-11-10 22:59:26.707275-08:00,"(3.0, 5.0)",180.955
293,nav,2,8,right,2021-11-10 22:59:26.886244-08:00,"(4.0, 5.0)",178.969
294,nav,2,8,up,2021-11-10 22:59:27.192500-08:00,"(4.0, 4.0)",306.256
295,nav,2,8,up,2021-11-10 22:59:27.338429-08:00,"(4.0, 3.0)",145.929
296,nav,2,8,up,2021-11-10 22:59:27.508638-08:00,"(4.0, 2.0)",170.209
297,quiz,2,1,,,"(2.0, 3.0)",
298,quiz,2,2,,,"(3.0, 3.0)",
299,quiz,2,3,,,"(3.0, 3.0)",
300,quiz,2,4,,,"(1.0, 3.0)",
301,quiz,2,5,,,"(6.0, 3.0)",
302,quiz,2,6,,,"(1.0, 6.0)",
303,quiz,2,7,,,"(9.0, 5.0)",
304,quiz,2,8,,,"(2.0, 3.0)",
305,nav,3,1,start,2021-11-10 23:00:01.624403-08:00,"(1.0, 1.0)",0
306,nav,3,1,right,2021-11-10 23:00:02.735130-08:00,"(2.0, 1.0)",1110.727
307,nav,3,1,right,2021-11-10 23:00:02.875154-08:00,"(3.0, 1.0)",140.024
308,nav,3,1,right,2021-11-10 23:00:03.054026-08:00,"(4.0, 1.0)",178.872
309,nav,3,1,right,2021-11-10 23:00:03.237500-08:00,"(5.0, 1.0)",183.474
310,nav,3,1,right,2021-11-10 23:00:03.369555-08:00,"(6.0, 1.0)",132.055
311,nav,3,1,down,2021-11-10 23:00:03.677650-08:00,"(6.0, 2.0)",308.095
312,nav,3,1,down,2021-11-10 23:00:03.822102-08:00,"(6.0, 3.0)",144.452
313,nav,3,1,left,2021-11-10 23:00:04.188858-08:00,"(5.0, 3.0)",366.75600000000003
314,nav,3,1,left,2021-11-10 23:00:04.351355-08:00,"(4.0, 3.0)",162.497
315,nav,3,1,left,2021-11-10 23:00:04.503297-08:00,"(3.0, 3.0)",151.942
316,nav,3,1,down,2021-11-10 23:00:04.850988-08:00,"(3.0, 4.0)",347.691
317,nav,3,1,down,2021-11-10 23:00:05.044845-08:00,"(3.0, 5.0)",193.857
318,nav,3,1,right,2021-11-10 23:00:05.442461-08:00,"(4.0, 5.0)",397.61600000000004
319,nav,3,1,right,2021-11-10 23:00:05.621968-08:00,"(5.0, 5.0)",179.507
320,nav,3,1,right,2021-11-10 23:00:05.812262-08:00,"(6.0, 5.0)",190.29399999999998
321,nav,3,1,right,2021-11-10 23:00:05.975214-08:00,"(7.0, 5.0)",162.95200000000003
322,nav,3,1,down,2021-11-10 23:00:06.325081-08:00,"(7.0, 6.0)",349.86699999999996
323,nav,3,1,down,2021-11-10 23:00:06.492383-08:00,"(7.0, 7.0)",167.302
324,nav,3,1,right,2021-11-10 23:00:06.758999-08:00,"(8.0, 7.0)",266.61600000000004
325,nav,3,1,right,2021-11-10 23:00:06.938680-08:00,"(9.0, 7.0)",179.681
326,nav,3,1,up,2021-11-10 23:00:07.455090-08:00,"(9.0, 6.0)",516.4100000000001
327,nav,3,2,start,2021-11-10 23:00:08.479992-08:00,"(1.0, 1.0)",0
328,nav,3,2,right,2021-11-10 23:00:09.023555-08:00,"(2.0, 1.0)",543.563
329,nav,3,2,down,2021-11-10 23:00:09.365003-08:00,"(2.0, 2.0)",341.448
330,nav,3,2,down,2021-11-10 23:00:09.527504-08:00,"(2.0, 3.0)",162.501
331,nav,3,2,right,2021-11-10 23:00:09.780683-08:00,"(3.0, 3.0)",253.17899999999997
332,nav,3,2,right,2021-11-10 23:00:09.942025-08:00,"(4.0, 3.0)",161.342
333,nav,3,2,down,2021-11-10 23:00:10.298412-08:00,"(4.0, 4.0)",356.387
334,nav,3,2,down,2021-11-10 23:00:10.494234-08:00,"(4.0, 5.0)",195.822
335,nav,3,2,left,2021-11-10 23:00:10.746795-08:00,"(3.0, 5.0)",252.56099999999998
336,nav,3,2,down,2021-11-10 23:00:11.049852-08:00,"(3.0, 6.0)",303.057
337,nav,3,2,down,2021-11-10 23:00:11.236933-08:00,"(3.0, 7.0)",187.081
338,nav,3,2,up,2021-11-10 23:00:11.532450-08:00,"(3.0, 6.0)",295.517
339,nav,3,2,up,2021-11-10 23:00:11.694888-08:00,"(3.0, 5.0)",162.438
340,nav,3,2,right,2021-11-10 23:00:11.965149-08:00,"(4.0, 5.0)",270.26099999999997
341,nav,3,2,right,2021-11-10 23:00:12.154933-08:00,"(5.0, 5.0)",189.78400000000002
342,nav,3,2,right,2021-11-10 23:00:12.331758-08:00,"(6.0, 5.0)",176.82500000000002
343,nav,3,2,right,2021-11-10 23:00:12.486320-08:00,"(7.0, 5.0)",154.562
344,nav,3,2,down,2021-11-10 23:00:12.738934-08:00,"(7.0, 6.0)",252.614
345,nav,3,2,down,2021-11-10 23:00:12.905769-08:00,"(7.0, 7.0)",166.835
346,nav,3,2,right,2021-11-10 23:00:13.381742-08:00,"(8.0, 7.0)",475.97299999999996
347,nav,3,2,right,2021-11-10 23:00:13.558925-08:00,"(9.0, 7.0)",177.18300000000002
348,nav,3,2,up,2021-11-10 23:00:13.954372-08:00,"(9.0, 6.0)",395.447
349,nav,3,2,up,2021-11-10 23:00:14.133965-08:00,"(9.0, 5.0)",179.593
350,nav,3,2,up,2021-11-10 23:00:14.283400-08:00,"(9.0, 4.0)",149.435
351,nav,3,2,up,2021-11-10 23:00:14.455932-08:00,"(9.0, 3.0)",172.53199999999998
352,nav,3,2,up,2021-11-10 23:00:14.605939-08:00,"(9.0, 2.0)",150.007
353,nav,3,2,up,2021-11-10 23:00:14.773378-08:00,"(9.0, 1.0)",167.439
354,nav,3,3,start,2021-11-10 23:00:15.795711-08:00,"(1.0, 1.0)",0
355,nav,3,3,right,2021-11-10 23:00:16.293271-08:00,"(2.0, 1.0)",497.56
356,nav,3,3,right,2021-11-10 23:00:16.471097-08:00,"(3.0, 1.0)",177.82600000000002
357,nav,3,3,right,2021-11-10 23:00:16.664396-08:00,"(4.0, 1.0)",193.299
358,nav,3,3,right,2021-11-10 23:00:16.840308-08:00,"(5.0, 1.0)",175.912
359,nav,3,3,right,2021-11-10 23:00:17.005823-08:00,"(6.0, 1.0)",165.515
360,nav,3,3,down,2021-11-10 23:00:17.348456-08:00,"(6.0, 2.0)",342.63300000000004
361,nav,3,3,down,2021-11-10 23:00:17.522778-08:00,"(6.0, 3.0)",174.322
362,nav,3,3,down,2021-11-10 23:00:17.707994-08:00,"(6.0, 4.0)",185.21599999999998
363,nav,3,3,down,2021-11-10 23:00:17.867668-08:00,"(6.0, 5.0)",159.674
364,nav,3,3,down,2021-11-10 23:00:18.039475-08:00,"(6.0, 6.0)",171.807
365,nav,3,3,down,2021-11-10 23:00:18.188527-08:00,"(6.0, 7.0)",149.052
366,nav,3,3,left,2021-11-10 23:00:18.589631-08:00,"(5.0, 7.0)",401.10400000000004
367,nav,3,3,left,2021-11-10 23:00:18.746696-08:00,"(4.0, 7.0)",157.065
368,nav,3,3,left,2021-11-10 23:00:18.909325-08:00,"(3.0, 7.0)",162.629
369,nav,3,4,start,2021-11-10 23:00:19.970403-08:00,"(1.0, 1.0)",0
370,nav,3,4,right,2021-11-10 23:00:20.436412-08:00,"(2.0, 1.0)",466.009
371,nav,3,4,down,2021-11-10 23:00:20.691334-08:00,"(2.0, 2.0)",254.92199999999997
372,nav,3,4,down,2021-11-10 23:00:20.860584-08:00,"(2.0, 3.0)",169.25
373,nav,3,4,down,2021-11-10 23:00:21.013478-08:00,"(2.0, 4.0)",152.894
374,nav,3,4,right,2021-11-10 23:00:21.284041-08:00,"(3.0, 4.0)",270.563
375,nav,3,4,right,2021-11-10 23:00:21.458150-08:00,"(4.0, 4.0)",174.109
376,nav,3,4,right,2021-11-10 23:00:21.658899-08:00,"(5.0, 4.0)",200.74900000000002
377,nav,3,4,right,2021-11-10 23:00:21.884807-08:00,"(6.0, 4.0)",225.908
378,nav,3,4,down,2021-11-10 23:00:22.525577-08:00,"(6.0, 5.0)",640.77
379,nav,3,4,down,2021-11-10 23:00:22.707839-08:00,"(6.0, 6.0)",182.262
380,nav,3,4,up,2021-11-10 23:00:23.255307-08:00,"(6.0, 5.0)",547.468
381,nav,3,4,right,2021-11-10 23:00:23.493446-08:00,"(7.0, 5.0)",238.13899999999998
382,nav,3,4,right,2021-11-10 23:00:23.703175-08:00,"(8.0, 5.0)",209.72899999999998
383,nav,3,4,right,2021-11-10 23:00:23.855578-08:00,"(9.0, 5.0)",152.40300000000002
384,nav,3,4,up,2021-11-10 23:00:24.233788-08:00,"(9.0, 4.0)",378.21
385,nav,3,4,up,2021-11-10 23:00:24.412409-08:00,"(9.0, 3.0)",178.621
386,nav,3,4,up,2021-11-10 23:00:24.540539-08:00,"(9.0, 2.0)",128.13
387,nav,3,4,left,2021-11-10 23:00:24.934669-08:00,"(8.0, 2.0)",394.13
388,nav,3,5,start,2021-11-10 23:00:25.959830-08:00,"(1.0, 1.0)",0
389,nav,3,5,right,2021-11-10 23:00:26.519413-08:00,"(2.0, 1.0)",559.5830000000001
390,nav,3,5,right,2021-11-10 23:00:26.686729-08:00,"(3.0, 1.0)",167.316
391,nav,3,5,right,2021-11-10 23:00:26.892178-08:00,"(4.0, 1.0)",205.44899999999998
392,nav,3,5,right,2021-11-10 23:00:27.066736-08:00,"(5.0, 1.0)",174.558
393,nav,3,5,down,2021-11-10 23:00:27.366289-08:00,"(5.0, 2.0)",299.553
394,nav,3,5,down,2021-11-10 23:00:27.541019-08:00,"(5.0, 3.0)",174.73
395,nav,3,5,down,2021-11-10 23:00:27.708547-08:00,"(5.0, 4.0)",167.52800000000002
396,nav,3,5,down,2021-11-10 23:00:27.859880-08:00,"(5.0, 5.0)",151.333
397,nav,3,5,down,2021-11-10 23:00:28.028838-08:00,"(5.0, 6.0)",168.958
398,nav,3,5,down,2021-11-10 23:00:28.180518-08:00,"(5.0, 7.0)",151.68
399,nav,3,5,left,2021-11-10 23:00:28.933214-08:00,"(4.0, 7.0)",752.696
400,nav,3,5,left,2021-11-10 23:00:29.093760-08:00,"(3.0, 7.0)",160.546
401,nav,3,5,left,2021-11-10 23:00:29.272785-08:00,"(2.0, 7.0)",179.02499999999998
402,nav,3,5,left,2021-11-10 23:00:29.435217-08:00,"(1.0, 7.0)",162.432
403,nav,3,5,up,2021-11-10 23:00:29.910281-08:00,"(1.0, 6.0)",475.06399999999996
404,nav,3,5,up,2021-11-10 23:00:30.079237-08:00,"(1.0, 5.0)",168.956
405,nav,3,5,up,2021-11-10 23:00:30.238847-08:00,"(1.0, 4.0)",159.61
406,nav,3,5,up,2021-11-10 23:00:30.867046-08:00,"(1.0, 3.0)",628.199
407,nav,3,6,start,2021-11-10 23:00:31.888987-08:00,"(1.0, 1.0)",0
408,nav,3,6,right,2021-11-10 23:00:32.417207-08:00,"(2.0, 1.0)",528.22
409,nav,3,6,right,2021-11-10 23:00:32.700690-08:00,"(3.0, 1.0)",283.483
410,nav,3,6,down,2021-11-10 23:00:32.962569-08:00,"(3.0, 2.0)",261.87899999999996
411,nav,3,6,down,2021-11-10 23:00:33.119020-08:00,"(3.0, 3.0)",156.451
412,nav,3,6,down,2021-11-10 23:00:33.309422-08:00,"(3.0, 4.0)",190.402
413,nav,3,6,down,2021-11-10 23:00:33.475726-08:00,"(3.0, 5.0)",166.304
414,nav,3,6,down,2021-11-10 23:00:33.658748-08:00,"(3.0, 6.0)",183.022
415,nav,3,6,down,2021-11-10 23:00:33.798108-08:00,"(3.0, 7.0)",139.36
416,nav,3,6,up,2021-11-10 23:00:34.123438-08:00,"(3.0, 6.0)",325.33
417,nav,3,6,up,2021-11-10 23:00:34.292073-08:00,"(3.0, 5.0)",168.63500000000002
418,nav,3,6,up,2021-11-10 23:00:34.437298-08:00,"(3.0, 4.0)",145.225
419,nav,3,6,down,2021-11-10 23:00:35.012539-08:00,"(3.0, 5.0)",575.241
420,nav,3,6,right,2021-11-10 23:00:35.292615-08:00,"(4.0, 5.0)",280.07599999999996
421,nav,3,6,right,2021-11-10 23:00:35.459936-08:00,"(5.0, 5.0)",167.321
422,nav,3,6,right,2021-11-10 23:00:35.620298-08:00,"(6.0, 5.0)",160.362
423,nav,3,6,down,2021-11-10 23:00:35.934043-08:00,"(6.0, 6.0)",313.745
424,nav,3,6,down,2021-11-10 23:00:36.422938-08:00,"(6.0, 7.0)",488.89500000000004
425,nav,3,6,right,2021-11-10 23:00:36.787483-08:00,"(7.0, 7.0)",364.545
426,nav,3,6,right,2021-11-10 23:00:36.978449-08:00,"(8.0, 7.0)",190.966
427,nav,3,7,start,2021-11-10 23:00:38.003922-08:00,"(1.0, 1.0)",0
428,nav,3,7,right,2021-11-10 23:00:38.004130-08:00,"(2.0, 1.0)",0.208
429,nav,3,7,right,2021-11-10 23:00:38.652229-08:00,"(3.0, 1.0)",648.0989999999999
430,nav,3,7,right,2021-11-10 23:00:39.040614-08:00,"(4.0, 1.0)",388.385
431,nav,3,7,right,2021-11-10 23:00:39.244969-08:00,"(5.0, 1.0)",204.35500000000002
432,nav,3,7,down,2021-11-10 23:00:39.531287-08:00,"(5.0, 2.0)",286.31800000000004
433,nav,3,7,down,2021-11-10 23:00:39.699259-08:00,"(5.0, 3.0)",167.972
434,nav,3,7,left,2021-11-10 23:00:39.972874-08:00,"(4.0, 3.0)",273.615
435,nav,3,7,left,2021-11-10 23:00:40.123143-08:00,"(3.0, 3.0)",150.269
436,nav,3,7,left,2021-11-10 23:00:40.290652-08:00,"(2.0, 3.0)",167.509
437,nav,3,8,start,2021-11-10 23:00:41.333745-08:00,"(1.0, 1.0)",0
438,nav,3,8,right,2021-11-10 23:00:41.846865-08:00,"(2.0, 1.0)",513.12
439,nav,3,8,down,2021-11-10 23:00:42.155515-08:00,"(2.0, 2.0)",308.65
440,nav,3,8,down,2021-11-10 23:00:42.310338-08:00,"(2.0, 3.0)",154.82299999999998
441,nav,3,8,down,2021-11-10 23:00:42.476105-08:00,"(2.0, 4.0)",165.767
442,nav,3,8,right,2021-11-10 23:00:42.754743-08:00,"(3.0, 4.0)",278.638
443,nav,3,8,down,2021-11-10 23:00:43.027527-08:00,"(3.0, 5.0)",272.78400000000005
444,nav,3,8,down,2021-11-10 23:00:43.205895-08:00,"(3.0, 6.0)",178.368
445,nav,3,8,down,2021-11-10 23:00:43.341795-08:00,"(3.0, 7.0)",135.9
446,nav,3,8,right,2021-11-10 23:00:43.655065-08:00,"(4.0, 7.0)",313.27
447,nav,3,8,right,2021-11-10 23:00:43.847792-08:00,"(5.0, 7.0)",192.727
448,nav,3,8,up,2021-11-10 23:00:44.213300-08:00,"(5.0, 6.0)",365.508
449,nav,3,8,up,2021-11-10 23:00:44.367232-08:00,"(5.0, 5.0)",153.93200000000002
450,nav,3,8,right,2021-11-10 23:00:44.664075-08:00,"(6.0, 5.0)",296.843
451,nav,3,8,up,2021-11-10 23:00:44.995303-08:00,"(6.0, 4.0)",331.228
452,nav,3,8,up,2021-11-10 23:00:45.175276-08:00,"(6.0, 3.0)",179.97299999999998
453,nav,3,8,right,2021-11-10 23:00:45.598466-08:00,"(7.0, 3.0)",423.19
454,nav,3,8,right,2021-11-10 23:00:45.861370-08:00,"(8.0, 3.0)",262.90400000000005
455,nav,3,8,up,2021-11-10 23:00:46.182398-08:00,"(8.0, 2.0)",321.02799999999996
456,nav,3,8,down,2021-11-10 23:00:46.667611-08:00,"(8.0, 3.0)",485.213
457,nav,3,8,down,2021-11-10 23:00:46.844640-08:00,"(8.0, 4.0)",177.029
458,nav,3,8,right,2021-11-10 23:00:47.165721-08:00,"(9.0, 4.0)",321.081
459,nav,3,8,down,2021-11-10 23:00:47.422944-08:00,"(9.0, 5.0)",257.22299999999996
460,nav,3,8,down,2021-11-10 23:00:47.562875-08:00,"(9.0, 6.0)",139.931
461,nav,3,8,left,2021-11-10 23:00:47.836405-08:00,"(8.0, 6.0)",273.53
462,nav,3,8,left,2021-11-10 23:00:48.012593-08:00,"(7.0, 6.0)",176.18800000000002
463,nav,3,8,down,2021-11-10 23:00:48.274932-08:00,"(7.0, 7.0)",262.339
464,nav,3,8,left,2021-11-10 23:00:48.549476-08:00,"(6.0, 7.0)",274.544
465,nav,3,8,left,2021-11-10 23:00:48.724667-08:00,"(5.0, 7.0)",175.191
466,nav,3,8,left,2021-11-10 23:00:48.875915-08:00,"(4.0, 7.0)",151.248
467,nav,3,8,left,2021-11-10 23:00:49.059204-08:00,"(3.0, 7.0)",183.28900000000002
468,nav,3,8,left,2021-11-10 23:00:49.194836-08:00,"(2.0, 7.0)",135.632
469,nav,3,8,left,2021-11-10 23:00:49.344149-08:00,"(1.0, 7.0)",149.313
470,nav,3,8,up,2021-11-10 23:00:49.689002-08:00,"(1.0, 6.0)",344.853
471,quiz,3,1,,,"(2.0, 3.0)",
472,quiz,3,2,,,"(3.0, 3.0)",
473,quiz,3,3,,,"(1.0, 5.0)",
474,quiz,3,4,,,"(4.0, 4.0)",
475,quiz,3,5,,,"(2.0, 3.0)",
476,quiz,3,6,,,"(7.0, 3.0)",
477,quiz,3,7,,,"(1.0, 3.0)",
478,quiz,3,8,,,"(5.0, 3.0)",
