,task,block,trial,key_pressed,timestamp,coordinate,rt
0,nav,1,1,start,2021-10-07 13:44:53.940763-07:00,"(1.0, 1.0)",0
1,nav,1,1,right,2021-10-07 13:45:07.020863-07:00,"(2.0, 1.0)",13080.1
2,nav,1,1,down,2021-10-07 13:45:07.962831-07:00,"(2.0, 2.0)",941.9680000000001
3,nav,1,1,down,2021-10-07 13:45:08.415180-07:00,"(2.0, 3.0)",452.349
4,nav,1,1,right,2021-10-07 13:45:08.706927-07:00,"(3.0, 3.0)",291.74699999999996
5,nav,1,1,right,2021-10-07 13:45:08.886681-07:00,"(4.0, 3.0)",179.754
6,nav,1,1,up,2021-10-07 13:45:09.189899-07:00,"(4.0, 2.0)",303.21799999999996
7,nav,1,1,up,2021-10-07 13:45:09.331936-07:00,"(4.0, 1.0)",142.037
8,nav,1,1,right,2021-10-07 13:45:09.598015-07:00,"(5.0, 1.0)",266.079
9,nav,1,1,right,2021-10-07 13:45:09.755354-07:00,"(6.0, 1.0)",157.339
10,nav,1,1,right,2021-10-07 13:45:09.948498-07:00,"(7.0, 1.0)",193.144
11,nav,1,1,right,2021-10-07 13:45:10.092212-07:00,"(8.0, 1.0)",143.714
12,nav,1,1,right,2021-10-07 13:45:13.103016-07:00,"(9.0, 1.0)",3010.8039999999996
13,nav,1,2,start,2021-10-07 13:45:14.189798-07:00,"(1.0, 1.0)",0
14,nav,1,2,right,2021-10-07 13:45:24.428813-07:00,"(2.0, 1.0)",10239.015
15,nav,1,2,right,2021-10-07 13:45:24.604356-07:00,"(3.0, 1.0)",175.543
16,nav,1,2,right,2021-10-07 13:45:24.755723-07:00,"(4.0, 1.0)",151.367
17,nav,1,2,down,2021-10-07 13:45:24.942214-07:00,"(4.0, 2.0)",186.49099999999999
18,nav,1,2,down,2021-10-07 13:45:25.220380-07:00,"(4.0, 3.0)",278.166
19,nav,1,2,down,2021-10-07 13:45:25.357009-07:00,"(4.0, 4.0)",136.629
20,nav,1,2,down,2021-10-07 13:45:25.516461-07:00,"(4.0, 5.0)",159.452
21,nav,1,2,down,2021-10-07 13:45:25.675546-07:00,"(4.0, 6.0)",159.085
22,nav,1,2,down,2021-10-07 13:45:25.782055-07:00,"(4.0, 7.0)",106.509
23,nav,1,2,right,2021-10-07 13:45:26.067560-07:00,"(5.0, 7.0)",285.505
24,nav,1,2,right,2021-10-07 13:45:26.250951-07:00,"(6.0, 7.0)",183.391
25,nav,1,3,start,2021-10-07 13:45:27.310558-07:00,"(1.0, 1.0)",0
26,nav,1,3,right,2021-10-07 13:45:33.281110-07:00,"(2.0, 1.0)",5970.552
27,nav,1,3,right,2021-10-07 13:45:33.429324-07:00,"(3.0, 1.0)",148.214
28,nav,1,3,right,2021-10-07 13:45:33.571980-07:00,"(4.0, 1.0)",142.656
29,nav,1,3,right,2021-10-07 13:45:33.964658-07:00,"(5.0, 1.0)",392.67800000000005
30,nav,1,3,down,2021-10-07 13:45:34.194384-07:00,"(5.0, 2.0)",229.72600000000003
31,nav,1,3,down,2021-10-07 13:45:34.327100-07:00,"(5.0, 3.0)",132.716
32,nav,1,3,down,2021-10-07 13:45:34.481592-07:00,"(5.0, 4.0)",154.492
33,nav,1,3,down,2021-10-07 13:45:34.613499-07:00,"(5.0, 5.0)",131.90699999999998
34,nav,1,3,down,2021-10-07 13:45:34.736189-07:00,"(5.0, 6.0)",122.69
35,nav,1,3,right,2021-10-07 13:45:34.988605-07:00,"(6.0, 6.0)",252.41599999999997
36,nav,1,3,right,2021-10-07 13:45:35.262982-07:00,"(7.0, 6.0)",274.377
37,nav,1,3,up,2021-10-07 13:45:35.654673-07:00,"(7.0, 5.0)",391.69100000000003
38,nav,1,4,start,2021-10-07 13:45:36.733658-07:00,"(1.0, 1.0)",0
39,nav,1,4,right,2021-10-07 13:45:42.300432-07:00,"(2.0, 1.0)",5566.773999999999
40,nav,1,4,right,2021-10-07 13:45:42.414106-07:00,"(3.0, 1.0)",113.67399999999999
41,nav,1,4,right,2021-10-07 13:45:42.563716-07:00,"(4.0, 1.0)",149.60999999999999
42,nav,1,4,down,2021-10-07 13:45:42.747567-07:00,"(4.0, 2.0)",183.851
43,nav,1,4,down,2021-10-07 13:45:42.917156-07:00,"(4.0, 3.0)",169.589
44,nav,1,4,down,2021-10-07 13:45:43.036225-07:00,"(4.0, 4.0)",119.06899999999999
45,nav,1,4,down,2021-10-07 13:45:43.197145-07:00,"(4.0, 5.0)",160.92000000000002
46,nav,1,4,right,2021-10-07 13:45:43.414222-07:00,"(5.0, 5.0)",217.077
47,nav,1,4,right,2021-10-07 13:45:43.577392-07:00,"(6.0, 5.0)",163.17000000000002
48,nav,1,4,up,2021-10-07 13:45:43.775630-07:00,"(6.0, 4.0)",198.238
49,nav,1,4,up,2021-10-07 13:45:43.908353-07:00,"(6.0, 3.0)",132.723
50,nav,1,4,right,2021-10-07 13:45:44.305802-07:00,"(7.0, 3.0)",397.449
51,nav,1,4,right,2021-10-07 13:45:44.547861-07:00,"(8.0, 3.0)",242.059
52,nav,1,5,start,2021-10-07 13:45:45.613334-07:00,"(1.0, 1.0)",0
53,nav,1,5,right,2021-10-07 13:45:56.538533-07:00,"(2.0, 1.0)",10925.198999999999
54,nav,1,5,down,2021-10-07 13:45:56.735662-07:00,"(2.0, 2.0)",197.129
55,nav,1,5,down,2021-10-07 13:45:56.873431-07:00,"(2.0, 3.0)",137.769
56,nav,1,5,down,2021-10-07 13:45:57.026320-07:00,"(2.0, 4.0)",152.889
57,nav,1,5,down,2021-10-07 13:45:57.161125-07:00,"(2.0, 5.0)",134.805
58,nav,1,5,down,2021-10-07 13:45:57.735485-07:00,"(2.0, 6.0)",574.36
59,nav,1,5,right,2021-10-07 13:45:57.979176-07:00,"(3.0, 6.0)",243.691
60,nav,1,5,right,2021-10-07 13:45:58.137513-07:00,"(4.0, 6.0)",158.33700000000002
61,nav,1,5,right,2021-10-07 13:45:58.299901-07:00,"(5.0, 6.0)",162.388
62,nav,1,5,right,2021-10-07 13:45:58.616936-07:00,"(6.0, 6.0)",317.035
63,nav,1,5,up,2021-10-07 13:45:58.840109-07:00,"(6.0, 5.0)",223.173
64,nav,1,5,up,2021-10-07 13:45:59.129543-07:00,"(6.0, 4.0)",289.434
65,nav,1,5,left,2021-10-07 13:45:59.354049-07:00,"(5.0, 4.0)",224.506
66,nav,1,5,left,2021-10-07 13:45:59.497004-07:00,"(4.0, 4.0)",142.955
67,nav,1,5,up,2021-10-07 13:45:59.746115-07:00,"(4.0, 3.0)",249.111
68,nav,1,6,start,2021-10-07 13:46:00.815460-07:00,"(1.0, 1.0)",0
69,nav,1,6,right,2021-10-07 13:46:08.265831-07:00,"(2.0, 1.0)",7450.370999999999
70,nav,1,6,down,2021-10-07 13:46:08.515846-07:00,"(2.0, 2.0)",250.015
71,nav,1,6,down,2021-10-07 13:46:08.666135-07:00,"(2.0, 3.0)",150.28900000000002
72,nav,1,6,down,2021-10-07 13:46:08.799407-07:00,"(2.0, 4.0)",133.272
73,nav,1,6,left,2021-10-07 13:46:09.035284-07:00,"(1.0, 4.0)",235.877
74,nav,1,6,down,2021-10-07 13:46:09.347031-07:00,"(1.0, 5.0)",311.747
75,nav,1,6,down,2021-10-07 13:46:09.518252-07:00,"(1.0, 6.0)",171.221
76,nav,1,7,start,2021-10-07 13:46:10.588143-07:00,"(1.0, 1.0)",0
77,nav,1,7,right,2021-10-07 13:46:12.261250-07:00,"(2.0, 1.0)",1673.107
78,nav,1,7,right,2021-10-07 13:46:21.565185-07:00,"(3.0, 1.0)",9303.935
79,nav,1,7,right,2021-10-07 13:46:21.725904-07:00,"(4.0, 1.0)",160.719
80,nav,1,7,right,2021-10-07 13:46:21.882910-07:00,"(5.0, 1.0)",157.006
81,nav,1,7,down,2021-10-07 13:46:22.082822-07:00,"(5.0, 2.0)",199.912
82,nav,1,7,down,2021-10-07 13:46:22.238810-07:00,"(5.0, 3.0)",155.988
83,nav,1,7,left,2021-10-07 13:46:22.494766-07:00,"(4.0, 3.0)",255.95600000000002
84,nav,1,7,left,2021-10-07 13:46:22.595734-07:00,"(3.0, 3.0)",100.968
85,nav,1,7,left,2021-10-07 13:46:23.133495-07:00,"(2.0, 3.0)",537.7610000000001
86,nav,1,7,down,2021-10-07 13:46:23.333009-07:00,"(2.0, 4.0)",199.514
87,nav,1,7,down,2021-10-07 13:46:23.483133-07:00,"(2.0, 5.0)",150.124
88,nav,1,8,start,2021-10-07 13:46:24.575056-07:00,"(1.0, 1.0)",0
89,nav,1,8,right,2021-10-07 13:46:33.765511-07:00,"(2.0, 1.0)",9190.455
90,nav,1,8,right,2021-10-07 13:46:33.965489-07:00,"(3.0, 1.0)",199.97799999999998
91,nav,1,8,right,2021-10-07 13:46:34.116413-07:00,"(4.0, 1.0)",150.924
92,nav,1,8,right,2021-10-07 13:46:34.268306-07:00,"(5.0, 1.0)",151.893
93,nav,1,8,down,2021-10-07 13:46:34.697958-07:00,"(5.0, 2.0)",429.652
94,nav,1,8,down,2021-10-07 13:46:34.698028-07:00,"(5.0, 3.0)",0.06999999999999999
95,nav,1,8,down,2021-10-07 13:46:34.766385-07:00,"(5.0, 4.0)",68.357
96,nav,1,8,down,2021-10-07 13:46:35.246424-07:00,"(5.0, 5.0)",480.039
97,nav,1,8,left,2021-10-07 13:46:35.408217-07:00,"(4.0, 5.0)",161.793
98,nav,1,8,left,2021-10-07 13:46:35.523158-07:00,"(3.0, 5.0)",114.941
99,nav,1,8,up,2021-10-07 13:46:35.829989-07:00,"(3.0, 4.0)",306.831
100,nav,1,8,up,2021-10-07 13:46:35.973345-07:00,"(3.0, 3.0)",143.35600000000002
101,nav,1,8,left,2021-10-07 13:46:36.172040-07:00,"(2.0, 3.0)",198.69500000000002
102,nav,1,8,left,2021-10-07 13:46:36.324229-07:00,"(1.0, 3.0)",152.189
103,quiz,1,1,,,"(5.0, 5.0)",
104,quiz,1,2,,,"(5.0, 4.0)",
105,quiz,1,3,,,"(4.0, 3.0)",
106,quiz,1,4,,,"(4.0, 3.0)",
107,quiz,1,5,,,"(5.0, 4.0)",
108,quiz,1,6,,,"(5.0, 6.0)",
109,quiz,1,7,,,"(5.0, 6.0)",
110,quiz,1,8,,,"(5.0, 6.0)",
111,nav,2,1,start,2021-10-07 13:48:09.794542-07:00,"(1.0, 1.0)",0
112,nav,2,1,right,2021-10-07 13:48:29.902813-07:00,"(2.0, 1.0)",20108.270999999997
113,nav,2,1,down,2021-10-07 13:48:30.785554-07:00,"(2.0, 2.0)",882.741
114,nav,2,1,down,2021-10-07 13:48:30.928596-07:00,"(2.0, 3.0)",143.042
115,nav,2,1,down,2021-10-07 13:48:31.073062-07:00,"(2.0, 4.0)",144.466
116,nav,2,1,down,2021-10-07 13:48:31.183360-07:00,"(2.0, 5.0)",110.29799999999999
117,nav,2,1,down,2021-10-07 13:48:31.352047-07:00,"(2.0, 6.0)",168.687
118,nav,2,1,right,2021-10-07 13:48:31.616080-07:00,"(3.0, 6.0)",264.033
119,nav,2,1,right,2021-10-07 13:48:31.775956-07:00,"(4.0, 6.0)",159.87599999999998
120,nav,2,1,right,2021-10-07 13:48:31.928032-07:00,"(5.0, 6.0)",152.076
121,nav,2,1,right,2021-10-07 13:48:32.080344-07:00,"(6.0, 6.0)",152.312
122,nav,2,1,up,2021-10-07 13:48:32.312671-07:00,"(6.0, 5.0)",232.327
123,nav,2,1,up,2021-10-07 13:48:32.735843-07:00,"(6.0, 4.0)",423.17199999999997
124,nav,2,1,left,2021-10-07 13:48:32.995143-07:00,"(5.0, 4.0)",259.29999999999995
125,nav,2,1,left,2021-10-07 13:48:33.111170-07:00,"(4.0, 4.0)",116.027
126,nav,2,1,up,2021-10-07 13:48:33.536086-07:00,"(4.0, 3.0)",424.916
127,nav,2,2,start,2021-10-07 13:48:34.624012-07:00,"(1.0, 1.0)",0
128,nav,2,2,right,2021-10-07 13:49:27.900316-07:00,"(2.0, 1.0)",53276.304000000004
129,nav,2,2,right,2021-10-07 13:49:28.044859-07:00,"(3.0, 1.0)",144.543
130,nav,2,2,right,2021-10-07 13:49:28.180068-07:00,"(4.0, 1.0)",135.209
131,nav,2,2,right,2021-10-07 13:49:28.329165-07:00,"(5.0, 1.0)",149.097
132,nav,2,2,down,2021-10-07 13:49:29.241276-07:00,"(5.0, 2.0)",912.111
133,nav,2,2,down,2021-10-07 13:49:29.532586-07:00,"(5.0, 3.0)",291.31
134,nav,2,2,down,2021-10-07 13:49:34.803200-07:00,"(5.0, 4.0)",5270.6140000000005
135,nav,2,2,down,2021-10-07 13:49:34.914467-07:00,"(5.0, 5.0)",111.26700000000001
136,nav,2,2,down,2021-10-07 13:49:35.052328-07:00,"(5.0, 6.0)",137.86100000000002
137,nav,2,2,right,2021-10-07 13:49:35.283122-07:00,"(6.0, 6.0)",230.794
138,nav,2,2,right,2021-10-07 13:49:35.452651-07:00,"(7.0, 6.0)",169.52900000000002
139,nav,2,2,up,2021-10-07 13:49:35.870483-07:00,"(7.0, 5.0)",417.832
140,nav,2,3,start,2021-10-07 13:49:36.967183-07:00,"(1.0, 1.0)",0
141,nav,2,3,right,2021-10-07 13:49:51.732276-07:00,"(2.0, 1.0)",14765.093
142,nav,2,3,right,2021-10-07 13:49:51.916096-07:00,"(3.0, 1.0)",183.82000000000002
143,nav,2,3,right,2021-10-07 13:49:52.051325-07:00,"(4.0, 1.0)",135.22899999999998
144,nav,2,3,down,2021-10-07 13:49:52.557332-07:00,"(4.0, 2.0)",506.007
145,nav,2,3,down,2021-10-07 13:49:52.714788-07:00,"(4.0, 3.0)",157.45600000000002
146,nav,2,3,down,2021-10-07 13:49:52.845138-07:00,"(4.0, 4.0)",130.35
147,nav,2,3,down,2021-10-07 13:49:53.073575-07:00,"(4.0, 5.0)",228.437
148,nav,2,3,right,2021-10-07 13:49:53.363336-07:00,"(5.0, 5.0)",289.76099999999997
149,nav,2,3,right,2021-10-07 13:49:53.516615-07:00,"(6.0, 5.0)",153.279
150,nav,2,3,up,2021-10-07 13:49:53.857632-07:00,"(6.0, 4.0)",341.017
151,nav,2,3,up,2021-10-07 13:49:54.011493-07:00,"(6.0, 3.0)",153.861
152,nav,2,3,right,2021-10-07 13:49:54.211781-07:00,"(7.0, 3.0)",200.28799999999998
153,nav,2,3,right,2021-10-07 13:49:54.370156-07:00,"(8.0, 3.0)",158.375
154,nav,2,4,start,2021-10-07 13:49:55.430215-07:00,"(1.0, 1.0)",0
155,nav,2,4,right,2021-10-07 13:50:16.853998-07:00,"(2.0, 1.0)",21423.783
156,nav,2,4,right,2021-10-07 13:50:16.988084-07:00,"(3.0, 1.0)",134.086
157,nav,2,4,right,2021-10-07 13:50:17.138950-07:00,"(4.0, 1.0)",150.866
158,nav,2,4,right,2021-10-07 13:50:17.322265-07:00,"(5.0, 1.0)",183.315
159,nav,2,4,down,2021-10-07 13:50:17.538968-07:00,"(5.0, 2.0)",216.703
160,nav,2,4,down,2021-10-07 13:50:17.686290-07:00,"(5.0, 3.0)",147.322
161,nav,2,4,down,2021-10-07 13:50:17.820624-07:00,"(5.0, 4.0)",134.334
162,nav,2,4,down,2021-10-07 13:50:18.013793-07:00,"(5.0, 5.0)",193.169
163,nav,2,4,left,2021-10-07 13:50:18.277470-07:00,"(4.0, 5.0)",263.677
164,nav,2,4,left,2021-10-07 13:50:18.413690-07:00,"(3.0, 5.0)",136.22
165,nav,2,4,up,2021-10-07 13:50:18.624044-07:00,"(3.0, 4.0)",210.354
166,nav,2,4,up,2021-10-07 13:50:18.755155-07:00,"(3.0, 3.0)",131.11100000000002
167,nav,2,4,left,2021-10-07 13:50:19.110126-07:00,"(2.0, 3.0)",354.971
168,nav,2,4,left,2021-10-07 13:50:19.632513-07:00,"(1.0, 3.0)",522.3870000000001
169,nav,2,5,start,2021-10-07 13:50:20.693411-07:00,"(1.0, 1.0)",0
170,nav,2,5,right,2021-10-07 13:50:31.081001-07:00,"(2.0, 1.0)",10387.59
171,nav,2,5,right,2021-10-07 13:50:31.237085-07:00,"(3.0, 1.0)",156.084
172,nav,2,5,right,2021-10-07 13:50:31.347300-07:00,"(4.0, 1.0)",110.21499999999999
173,nav,2,5,right,2021-10-07 13:50:31.860873-07:00,"(5.0, 1.0)",513.573
174,nav,2,5,down,2021-10-07 13:50:32.099654-07:00,"(5.0, 2.0)",238.781
175,nav,2,5,down,2021-10-07 13:50:32.234301-07:00,"(5.0, 3.0)",134.647
176,nav,2,5,left,2021-10-07 13:50:32.501668-07:00,"(4.0, 3.0)",267.367
177,nav,2,5,left,2021-10-07 13:50:32.644679-07:00,"(3.0, 3.0)",143.011
178,nav,2,5,left,2021-10-07 13:50:33.259630-07:00,"(2.0, 3.0)",614.951
179,nav,2,5,down,2021-10-07 13:50:33.444422-07:00,"(2.0, 4.0)",184.792
180,nav,2,5,down,2021-10-07 13:50:33.579798-07:00,"(2.0, 5.0)",135.376
181,nav,2,6,start,2021-10-07 13:50:34.646267-07:00,"(1.0, 1.0)",0
182,nav,2,6,right,2021-10-07 13:50:44.941825-07:00,"(2.0, 1.0)",10295.557999999999
183,nav,2,6,down,2021-10-07 13:50:45.316226-07:00,"(2.0, 2.0)",374.401
184,nav,2,6,down,2021-10-07 13:50:45.492135-07:00,"(2.0, 3.0)",175.90900000000002
185,nav,2,6,down,2021-10-07 13:50:45.618804-07:00,"(2.0, 4.0)",126.669
186,nav,2,6,left,2021-10-07 13:50:45.811509-07:00,"(1.0, 4.0)",192.70499999999998
187,nav,2,6,down,2021-10-07 13:50:46.054874-07:00,"(1.0, 5.0)",243.365
188,nav,2,6,down,2021-10-07 13:50:46.236444-07:00,"(1.0, 6.0)",181.57000000000002
189,nav,2,7,start,2021-10-07 13:50:47.301651-07:00,"(1.0, 1.0)",0
190,nav,2,7,right,2021-10-07 13:50:52.658862-07:00,"(2.0, 1.0)",5357.211
191,nav,2,7,down,2021-10-07 13:50:52.882928-07:00,"(2.0, 2.0)",224.06599999999997
192,nav,2,7,down,2021-10-07 13:50:53.034188-07:00,"(2.0, 3.0)",151.26000000000002
193,nav,2,7,right,2021-10-07 13:50:53.277137-07:00,"(3.0, 3.0)",242.949
194,nav,2,7,right,2021-10-07 13:50:53.420538-07:00,"(4.0, 3.0)",143.401
195,nav,2,7,up,2021-10-07 13:50:53.596050-07:00,"(4.0, 2.0)",175.512
196,nav,2,7,up,2021-10-07 13:50:53.722413-07:00,"(4.0, 1.0)",126.363
197,nav,2,7,right,2021-10-07 13:50:53.955913-07:00,"(5.0, 1.0)",233.5
198,nav,2,7,right,2021-10-07 13:50:54.133178-07:00,"(6.0, 1.0)",177.26500000000001
199,nav,2,7,right,2021-10-07 13:50:54.296164-07:00,"(7.0, 1.0)",162.986
200,nav,2,7,right,2021-10-07 13:50:54.434066-07:00,"(8.0, 1.0)",137.902
201,nav,2,7,right,2021-10-07 13:50:55.519527-07:00,"(9.0, 1.0)",1085.461
202,nav,2,8,start,2021-10-07 13:50:56.594682-07:00,"(1.0, 1.0)",0
203,nav,2,8,right,2021-10-07 13:51:07.140838-07:00,"(2.0, 1.0)",10546.155999999999
204,nav,2,8,right,2021-10-07 13:51:07.223911-07:00,"(3.0, 1.0)",83.073
205,nav,2,8,right,2021-10-07 13:51:07.382488-07:00,"(4.0, 1.0)",158.577
206,nav,2,8,down,2021-10-07 13:51:07.626360-07:00,"(4.0, 2.0)",243.872
207,nav,2,8,down,2021-10-07 13:51:07.782487-07:00,"(4.0, 3.0)",156.12699999999998
208,nav,2,8,down,2021-10-07 13:51:07.918174-07:00,"(4.0, 4.0)",135.687
209,nav,2,8,down,2021-10-07 13:51:08.071810-07:00,"(4.0, 5.0)",153.636
210,nav,2,8,down,2021-10-07 13:51:08.227871-07:00,"(4.0, 6.0)",156.061
211,nav,2,8,down,2021-10-07 13:51:09.326752-07:00,"(4.0, 7.0)",1098.881
212,nav,2,8,right,2021-10-07 13:51:09.614812-07:00,"(5.0, 7.0)",288.06
213,nav,2,8,right,2021-10-07 13:51:09.771864-07:00,"(6.0, 7.0)",157.052
214,quiz,2,1,,,"(6.0, 5.0)",
215,quiz,2,2,,,"(5.0, 5.0)",
216,quiz,2,3,,,"(5.0, 5.0)",
217,quiz,2,4,,,"(5.0, 4.0)",
218,quiz,2,5,,,"(5.0, 5.0)",
219,quiz,2,6,,,"(5.0, 5.0)",
220,quiz,2,7,,,"(5.0, 5.0)",
221,quiz,2,8,,,"(4.0, 5.0)",
222,nav,3,1,start,2021-10-07 13:52:37.235153-07:00,"(1.0, 1.0)",0
223,nav,3,1,right,2021-10-07 13:53:27.669103-07:00,"(2.0, 1.0)",50433.950000000004
224,nav,3,1,right,2021-10-07 13:53:28.005160-07:00,"(3.0, 1.0)",336.057
225,nav,3,1,right,2021-10-07 13:53:28.156484-07:00,"(4.0, 1.0)",151.32399999999998
226,nav,3,1,right,2021-10-07 13:53:28.305935-07:00,"(5.0, 1.0)",149.451
227,nav,3,1,down,2021-10-07 13:53:28.536501-07:00,"(5.0, 2.0)",230.566
228,nav,3,1,down,2021-10-07 13:53:28.692419-07:00,"(5.0, 3.0)",155.918
229,nav,3,1,left,2021-10-07 13:53:28.980987-07:00,"(4.0, 3.0)",288.568
230,nav,3,1,left,2021-10-07 13:53:29.139677-07:00,"(3.0, 3.0)",158.69
231,nav,3,1,left,2021-10-07 13:53:29.275281-07:00,"(2.0, 3.0)",135.604
232,nav,3,1,down,2021-10-07 13:53:29.474798-07:00,"(2.0, 4.0)",199.517
233,nav,3,1,down,2021-10-07 13:53:29.660189-07:00,"(2.0, 5.0)",185.391
234,nav,3,2,start,2021-10-07 13:53:30.756040-07:00,"(1.0, 1.0)",0
235,nav,3,2,right,2021-10-07 13:53:31.390193-07:00,"(2.0, 1.0)",634.153
236,nav,3,2,right,2021-10-07 13:53:31.522634-07:00,"(3.0, 1.0)",132.441
237,nav,3,2,right,2021-10-07 13:53:31.650257-07:00,"(4.0, 1.0)",127.62299999999999
238,nav,3,2,down,2021-10-07 13:53:31.988353-07:00,"(4.0, 2.0)",338.096
239,nav,3,2,down,2021-10-07 13:53:32.121687-07:00,"(4.0, 3.0)",133.334
240,nav,3,2,down,2021-10-07 13:53:32.273909-07:00,"(4.0, 4.0)",152.222
241,nav,3,2,down,2021-10-07 13:53:32.408836-07:00,"(4.0, 5.0)",134.927
242,nav,3,2,down,2021-10-07 13:53:32.547110-07:00,"(4.0, 6.0)",138.274
243,nav,3,2,down,2021-10-07 13:53:32.706429-07:00,"(4.0, 7.0)",159.319
244,nav,3,2,right,2021-10-07 13:53:32.883295-07:00,"(5.0, 7.0)",176.86599999999999
245,nav,3,2,right,2021-10-07 13:53:33.039871-07:00,"(6.0, 7.0)",156.576
246,nav,3,3,start,2021-10-07 13:53:34.126836-07:00,"(1.0, 1.0)",0
247,nav,3,3,right,2021-10-07 13:53:34.709182-07:00,"(2.0, 1.0)",582.346
248,nav,3,3,right,2021-10-07 13:53:34.887990-07:00,"(3.0, 1.0)",178.808
249,nav,3,3,right,2021-10-07 13:53:34.986485-07:00,"(4.0, 1.0)",98.495
250,nav,3,3,down,2021-10-07 13:53:35.331995-07:00,"(4.0, 2.0)",345.51
251,nav,3,3,down,2021-10-07 13:53:35.483028-07:00,"(4.0, 3.0)",151.033
252,nav,3,3,down,2021-10-07 13:53:35.620828-07:00,"(4.0, 4.0)",137.8
253,nav,3,3,down,2021-10-07 13:53:35.994015-07:00,"(4.0, 5.0)",373.187
254,nav,3,3,right,2021-10-07 13:53:36.202503-07:00,"(5.0, 5.0)",208.488
255,nav,3,3,right,2021-10-07 13:53:36.371956-07:00,"(6.0, 5.0)",169.453
256,nav,3,3,up,2021-10-07 13:53:36.571266-07:00,"(6.0, 4.0)",199.30999999999997
257,nav,3,3,up,2021-10-07 13:53:36.730107-07:00,"(6.0, 3.0)",158.841
258,nav,3,3,right,2021-10-07 13:53:36.915140-07:00,"(7.0, 3.0)",185.03300000000002
259,nav,3,3,right,2021-10-07 13:53:37.115699-07:00,"(8.0, 3.0)",200.559
260,nav,3,4,start,2021-10-07 13:53:38.187453-07:00,"(1.0, 1.0)",0
261,nav,3,4,right,2021-10-07 13:53:38.779429-07:00,"(2.0, 1.0)",591.976
262,nav,3,4,right,2021-10-07 13:53:38.941028-07:00,"(3.0, 1.0)",161.599
263,nav,3,4,right,2021-10-07 13:53:39.066943-07:00,"(4.0, 1.0)",125.91499999999999
264,nav,3,4,right,2021-10-07 13:53:39.492485-07:00,"(5.0, 1.0)",425.542
265,nav,3,4,down,2021-10-07 13:53:39.704761-07:00,"(5.0, 2.0)",212.27599999999998
266,nav,3,4,down,2021-10-07 13:53:39.842263-07:00,"(5.0, 3.0)",137.502
267,nav,3,4,down,2021-10-07 13:53:39.985858-07:00,"(5.0, 4.0)",143.595
268,nav,3,4,down,2021-10-07 13:53:40.114298-07:00,"(5.0, 5.0)",128.44
269,nav,3,4,down,2021-10-07 13:53:40.248990-07:00,"(5.0, 6.0)",134.692
270,nav,3,4,down,2021-10-07 13:53:40.675117-07:00,"(5.0, 7.0)",426.12699999999995
271,nav,3,4,left,2021-10-07 13:53:41.043599-07:00,"(4.0, 7.0)",368.48199999999997
272,nav,3,4,left,2021-10-07 13:53:41.208431-07:00,"(3.0, 7.0)",164.832
273,nav,3,4,left,2021-10-07 13:53:41.457195-07:00,"(2.0, 7.0)",248.764
274,nav,3,4,left,2021-10-07 13:53:41.722247-07:00,"(1.0, 7.0)",265.052
275,nav,3,4,up,2021-10-07 13:53:42.037022-07:00,"(1.0, 6.0)",314.77500000000003
276,nav,3,4,up,2021-10-07 13:53:42.185128-07:00,"(1.0, 5.0)",148.106
277,nav,3,4,up,2021-10-07 13:53:42.300042-07:00,"(1.0, 4.0)",114.914
278,nav,3,4,up,2021-10-07 13:53:42.443373-07:00,"(1.0, 3.0)",143.331
279,nav,3,5,start,2021-10-07 13:53:43.528039-07:00,"(1.0, 1.0)",0
280,nav,3,5,right,2021-10-07 13:53:44.116029-07:00,"(2.0, 1.0)",587.99
281,nav,3,5,right,2021-10-07 13:53:44.284232-07:00,"(3.0, 1.0)",168.203
282,nav,3,5,right,2021-10-07 13:53:44.426435-07:00,"(4.0, 1.0)",142.203
283,nav,3,5,right,2021-10-07 13:53:44.576324-07:00,"(5.0, 1.0)",149.88899999999998
284,nav,3,5,down,2021-10-07 13:53:45.698345-07:00,"(5.0, 2.0)",1122.021
285,nav,3,5,down,2021-10-07 13:53:45.873963-07:00,"(5.0, 3.0)",175.618
286,nav,3,5,down,2021-10-07 13:53:46.019469-07:00,"(5.0, 4.0)",145.506
287,nav,3,5,down,2021-10-07 13:53:46.173123-07:00,"(5.0, 5.0)",153.65400000000002
288,nav,3,5,down,2021-10-07 13:53:46.611023-07:00,"(5.0, 6.0)",437.90000000000003
289,nav,3,5,right,2021-10-07 13:53:46.988733-07:00,"(6.0, 6.0)",377.71
290,nav,3,5,right,2021-10-07 13:53:47.171046-07:00,"(7.0, 6.0)",182.31300000000002
291,nav,3,5,up,2021-10-07 13:53:47.669234-07:00,"(7.0, 5.0)",498.18800000000005
292,nav,3,6,start,2021-10-07 13:53:48.740603-07:00,"(1.0, 1.0)",0
293,nav,3,6,right,2021-10-07 13:53:49.540020-07:00,"(2.0, 1.0)",799.417
294,nav,3,6,down,2021-10-07 13:53:49.889029-07:00,"(2.0, 2.0)",349.009
295,nav,3,6,down,2021-10-07 13:53:50.059962-07:00,"(2.0, 3.0)",170.933
296,nav,3,6,down,2021-10-07 13:53:50.922425-07:00,"(2.0, 4.0)",862.463
297,nav,3,6,right,2021-10-07 13:53:51.397317-07:00,"(3.0, 4.0)",474.892
298,nav,3,6,down,2021-10-07 13:53:54.875313-07:00,"(3.0, 5.0)",3477.996
299,nav,3,6,down,2021-10-07 13:53:55.074726-07:00,"(3.0, 6.0)",199.413
300,nav,3,6,down,2021-10-07 13:53:55.232273-07:00,"(3.0, 7.0)",157.547
301,nav,3,6,left,2021-10-07 13:53:55.546736-07:00,"(2.0, 7.0)",314.46299999999997
302,nav,3,6,left,2021-10-07 13:53:55.682965-07:00,"(1.0, 7.0)",136.22899999999998
303,nav,3,6,up,2021-10-07 13:53:55.898530-07:00,"(1.0, 6.0)",215.565
304,nav,3,7,start,2021-10-07 13:53:56.975102-07:00,"(1.0, 1.0)",0
305,nav,3,7,right,2021-10-07 13:53:57.563887-07:00,"(2.0, 1.0)",588.785
306,nav,3,7,down,2021-10-07 13:53:57.826815-07:00,"(2.0, 2.0)",262.928
307,nav,3,7,down,2021-10-07 13:53:57.964341-07:00,"(2.0, 3.0)",137.526
308,nav,3,7,left,2021-10-07 13:53:58.170747-07:00,"(1.0, 3.0)",206.406
309,nav,3,7,down,2021-10-07 13:53:58.393112-07:00,"(1.0, 4.0)",222.365
310,nav,3,7,down,2021-10-07 13:53:58.562946-07:00,"(1.0, 5.0)",169.834
311,nav,3,7,right,2021-10-07 13:53:58.858537-07:00,"(2.0, 5.0)",295.591
312,nav,3,7,right,2021-10-07 13:53:59.193059-07:00,"(3.0, 5.0)",334.522
313,nav,3,7,down,2021-10-07 13:53:59.418387-07:00,"(3.0, 6.0)",225.328
314,nav,3,7,up,2021-10-07 13:53:59.770012-07:00,"(3.0, 5.0)",351.625
315,nav,3,7,right,2021-10-07 13:54:00.172790-07:00,"(4.0, 5.0)",402.778
316,nav,3,7,right,2021-10-07 13:54:00.346456-07:00,"(5.0, 5.0)",173.666
317,nav,3,7,right,2021-10-07 13:54:00.507095-07:00,"(6.0, 5.0)",160.639
318,nav,3,7,right,2021-10-07 13:54:00.685287-07:00,"(7.0, 5.0)",178.19199999999998
319,nav,3,7,down,2021-10-07 13:54:00.966664-07:00,"(7.0, 6.0)",281.377
320,nav,3,7,down,2021-10-07 13:54:01.133117-07:00,"(7.0, 7.0)",166.453
321,nav,3,7,right,2021-10-07 13:54:01.420171-07:00,"(8.0, 7.0)",287.054
322,nav,3,7,right,2021-10-07 13:54:01.580446-07:00,"(9.0, 7.0)",160.275
323,nav,3,7,up,2021-10-07 13:54:02.043534-07:00,"(9.0, 6.0)",463.088
324,nav,3,7,up,2021-10-07 13:54:02.228669-07:00,"(9.0, 5.0)",185.135
325,nav,3,7,up,2021-10-07 13:54:02.380975-07:00,"(9.0, 4.0)",152.30599999999998
326,nav,3,7,up,2021-10-07 13:54:02.542407-07:00,"(9.0, 3.0)",161.432
327,nav,3,7,up,2021-10-07 13:54:02.715076-07:00,"(9.0, 2.0)",172.66899999999998
328,nav,3,7,up,2021-10-07 13:54:02.829596-07:00,"(9.0, 1.0)",114.52
329,nav,3,8,start,2021-10-07 13:54:03.920747-07:00,"(1.0, 1.0)",0
330,nav,3,8,right,2021-10-07 13:54:04.556621-07:00,"(2.0, 1.0)",635.874
331,nav,3,8,down,2021-10-07 13:54:04.787655-07:00,"(2.0, 2.0)",231.034
332,nav,3,8,down,2021-10-07 13:54:05.012623-07:00,"(2.0, 3.0)",224.968
333,nav,3,8,down,2021-10-07 13:54:05.365793-07:00,"(2.0, 4.0)",353.16999999999996
334,nav,3,8,down,2021-10-07 13:54:05.534902-07:00,"(2.0, 5.0)",169.109
335,nav,3,8,down,2021-10-07 13:54:05.681968-07:00,"(2.0, 6.0)",147.066
336,nav,3,8,right,2021-10-07 13:54:06.033208-07:00,"(3.0, 6.0)",351.24
337,nav,3,8,right,2021-10-07 13:54:06.195117-07:00,"(4.0, 6.0)",161.909
338,nav,3,8,right,2021-10-07 13:54:06.346034-07:00,"(5.0, 6.0)",150.917
339,nav,3,8,right,2021-10-07 13:54:06.610830-07:00,"(6.0, 6.0)",264.796
340,nav,3,8,up,2021-10-07 13:54:06.840637-07:00,"(6.0, 5.0)",229.80700000000002
341,nav,3,8,up,2021-10-07 13:54:07.012723-07:00,"(6.0, 4.0)",172.08599999999998
342,nav,3,8,left,2021-10-07 13:54:07.325858-07:00,"(5.0, 4.0)",313.135
343,nav,3,8,left,2021-10-07 13:54:07.491762-07:00,"(4.0, 4.0)",165.904
344,nav,3,8,up,2021-10-07 13:54:07.687612-07:00,"(4.0, 3.0)",195.85
345,quiz,3,1,,,"(5.0, 3.0)",
346,quiz,3,2,,,"(4.0, 5.0)",
347,quiz,3,3,,,"(3.0, 5.0)",
348,quiz,3,4,,,"(6.0, 4.0)",
349,quiz,3,5,,,"(4.0, 5.0)",
350,quiz,3,6,,,"(6.0, 5.0)",
351,quiz,3,7,,,"(4.0, 4.0)",
352,quiz,3,8,,,"(6.0, 3.0)",
353,nav,4,1,start,2021-10-07 13:57:10.508543-07:00,"(1.0, 1.0)",0
354,nav,4,1,right,2021-10-07 13:57:23.375452-07:00,"(2.0, 1.0)",12866.909
355,nav,4,1,right,2021-10-07 13:57:23.441657-07:00,"(3.0, 1.0)",66.205
356,nav,4,1,right,2021-10-07 13:57:23.610374-07:00,"(4.0, 1.0)",168.717
357,nav,4,1,right,2021-10-07 13:57:23.759920-07:00,"(5.0, 1.0)",149.54600000000002
358,nav,4,1,right,2021-10-07 13:57:24.033637-07:00,"(6.0, 1.0)",273.717
359,nav,4,1,down,2021-10-07 13:57:24.118077-07:00,"(6.0, 2.0)",84.44
360,nav,4,1,down,2021-10-07 13:57:24.284540-07:00,"(6.0, 3.0)",166.463
361,nav,4,1,down,2021-10-07 13:57:24.423002-07:00,"(6.0, 4.0)",138.462
362,nav,4,1,left,2021-10-07 13:57:24.741245-07:00,"(5.0, 4.0)",318.243
363,nav,4,1,left,2021-10-07 13:57:24.889511-07:00,"(4.0, 4.0)",148.26600000000002
364,nav,4,1,left,2021-10-07 13:57:25.029812-07:00,"(3.0, 4.0)",140.30100000000002
365,nav,4,1,down,2021-10-07 13:57:25.291551-07:00,"(3.0, 5.0)",261.739
366,nav,4,1,left,2021-10-07 13:57:25.544173-07:00,"(2.0, 5.0)",252.622
367,nav,4,1,left,2021-10-07 13:57:25.695322-07:00,"(1.0, 5.0)",151.149
368,nav,4,1,down,2021-10-07 13:57:25.968651-07:00,"(1.0, 6.0)",273.329
369,nav,4,1,down,2021-10-07 13:57:26.114950-07:00,"(1.0, 7.0)",146.299
370,nav,4,1,right,2021-10-07 13:57:26.457098-07:00,"(2.0, 7.0)",342.148
371,nav,4,1,right,2021-10-07 13:57:26.639440-07:00,"(3.0, 7.0)",182.342
372,nav,4,2,start,2021-10-07 13:57:27.779047-07:00,"(1.0, 1.0)",0
373,nav,4,2,right,2021-10-07 13:57:27.780471-07:00,"(2.0, 1.0)",1.424
374,nav,4,2,down,2021-10-07 13:57:42.422603-07:00,"(2.0, 2.0)",14642.132
375,nav,4,2,down,2021-10-07 13:57:42.516631-07:00,"(2.0, 3.0)",94.028
376,nav,4,2,down,2021-10-07 13:57:42.918967-07:00,"(2.0, 4.0)",402.336
377,nav,4,2,left,2021-10-07 13:57:43.201282-07:00,"(1.0, 4.0)",282.315
378,nav,4,2,down,2021-10-07 13:57:43.561199-07:00,"(1.0, 5.0)",359.917
379,nav,4,2,down,2021-10-07 13:57:43.727090-07:00,"(1.0, 6.0)",165.89100000000002
380,nav,4,2,down,2021-10-07 13:57:43.856779-07:00,"(1.0, 7.0)",129.689
381,nav,4,2,right,2021-10-07 13:57:44.122563-07:00,"(2.0, 7.0)",265.784
382,nav,4,2,right,2021-10-07 13:57:44.284833-07:00,"(3.0, 7.0)",162.27
383,nav,4,2,right,2021-10-07 13:57:44.454578-07:00,"(4.0, 7.0)",169.745
384,nav,4,2,left,2021-10-07 13:57:44.887443-07:00,"(3.0, 7.0)",432.865
385,nav,4,2,up,2021-10-07 13:57:45.216402-07:00,"(3.0, 6.0)",328.959
386,nav,4,3,start,2021-10-07 13:57:46.328712-07:00,"(1.0, 1.0)",0
387,nav,4,3,right,2021-10-07 13:57:50.508846-07:00,"(2.0, 1.0)",4180.134
388,nav,4,3,down,2021-10-07 13:57:50.715747-07:00,"(2.0, 2.0)",206.901
389,nav,4,3,down,2021-10-07 13:57:50.868898-07:00,"(2.0, 3.0)",153.151
390,nav,4,3,down,2021-10-07 13:57:51.016645-07:00,"(2.0, 4.0)",147.74699999999999
391,nav,4,3,right,2021-10-07 13:57:51.227329-07:00,"(3.0, 4.0)",210.684
392,nav,4,3,right,2021-10-07 13:57:51.399844-07:00,"(4.0, 4.0)",172.51500000000001
393,nav,4,3,right,2021-10-07 13:57:51.581176-07:00,"(5.0, 4.0)",181.332
394,nav,4,3,right,2021-10-07 13:57:51.752883-07:00,"(6.0, 4.0)",171.707
395,nav,4,3,down,2021-10-07 13:57:52.314126-07:00,"(6.0, 5.0)",561.243
396,nav,4,3,right,2021-10-07 13:57:52.522269-07:00,"(7.0, 5.0)",208.143
397,nav,4,3,right,2021-10-07 13:57:52.694703-07:00,"(8.0, 5.0)",172.434
398,nav,4,3,right,2021-10-07 13:57:52.864285-07:00,"(9.0, 5.0)",169.58200000000002
399,nav,4,3,up,2021-10-07 13:57:53.082412-07:00,"(9.0, 4.0)",218.12699999999998
400,nav,4,3,up,2021-10-07 13:57:53.275913-07:00,"(9.0, 3.0)",193.501
401,nav,4,3,up,2021-10-07 13:57:53.411762-07:00,"(9.0, 2.0)",135.849
402,nav,4,3,left,2021-10-07 13:57:54.460522-07:00,"(8.0, 2.0)",1048.76
403,nav,4,4,start,2021-10-07 13:57:55.612547-07:00,"(1.0, 1.0)",0
404,nav,4,4,right,2021-10-07 13:58:28.097335-07:00,"(2.0, 1.0)",32484.788
405,nav,4,4,right,2021-10-07 13:58:28.237826-07:00,"(3.0, 1.0)",140.491
406,nav,4,4,down,2021-10-07 13:58:28.514328-07:00,"(3.0, 2.0)",276.502
407,nav,4,4,down,2021-10-07 13:58:28.658374-07:00,"(3.0, 3.0)",144.04600000000002
408,nav,4,4,down,2021-10-07 13:58:28.817288-07:00,"(3.0, 4.0)",158.914
409,nav,4,4,down,2021-10-07 13:58:28.989520-07:00,"(3.0, 5.0)",172.232
410,nav,4,4,right,2021-10-07 13:58:29.258748-07:00,"(4.0, 5.0)",269.228
411,nav,4,4,right,2021-10-07 13:58:29.387635-07:00,"(5.0, 5.0)",128.887
412,nav,4,4,right,2021-10-07 13:58:29.722477-07:00,"(6.0, 5.0)",334.842
413,nav,4,4,down,2021-10-07 13:58:29.922057-07:00,"(6.0, 6.0)",199.58
414,nav,4,4,down,2021-10-07 13:58:30.069277-07:00,"(6.0, 7.0)",147.22
415,nav,4,4,right,2021-10-07 13:58:30.269072-07:00,"(7.0, 7.0)",199.795
416,nav,4,4,right,2021-10-07 13:58:30.445428-07:00,"(8.0, 7.0)",176.35600000000002
417,nav,4,5,start,2021-10-07 13:58:31.565297-07:00,"(1.0, 1.0)",0
418,nav,4,5,right,2021-10-07 13:58:43.340577-07:00,"(2.0, 1.0)",11775.28
419,nav,4,5,down,2021-10-07 13:58:43.734450-07:00,"(2.0, 2.0)",393.873
420,nav,4,5,down,2021-10-07 13:58:43.916507-07:00,"(2.0, 3.0)",182.057
421,nav,4,5,left,2021-10-07 13:58:44.148096-07:00,"(1.0, 3.0)",231.589
422,nav,4,5,down,2021-10-07 13:58:44.411406-07:00,"(1.0, 4.0)",263.31
423,nav,4,5,down,2021-10-07 13:58:44.549539-07:00,"(1.0, 5.0)",138.133
424,nav,4,5,right,2021-10-07 13:58:44.917604-07:00,"(2.0, 5.0)",368.065
425,nav,4,5,right,2021-10-07 13:58:45.089340-07:00,"(3.0, 5.0)",171.736
426,nav,4,5,right,2021-10-07 13:58:45.260731-07:00,"(4.0, 5.0)",171.391
427,nav,4,5,up,2021-10-07 13:58:45.485621-07:00,"(4.0, 4.0)",224.89000000000001
428,nav,4,5,up,2021-10-07 13:58:45.645062-07:00,"(4.0, 3.0)",159.441
429,nav,4,5,up,2021-10-07 13:58:45.790032-07:00,"(4.0, 2.0)",144.97
430,nav,4,5,up,2021-10-07 13:58:45.909974-07:00,"(4.0, 1.0)",119.942
431,nav,4,5,right,2021-10-07 13:58:46.133025-07:00,"(5.0, 1.0)",223.051
432,nav,4,5,right,2021-10-07 13:58:46.303828-07:00,"(6.0, 1.0)",170.803
433,nav,4,5,down,2021-10-07 13:58:46.665235-07:00,"(6.0, 2.0)",361.407
434,nav,4,6,start,2021-10-07 13:58:47.765157-07:00,"(1.0, 1.0)",0
435,nav,4,6,right,2021-10-07 13:58:58.175149-07:00,"(2.0, 1.0)",10409.992
436,nav,4,6,right,2021-10-07 13:58:58.340132-07:00,"(3.0, 1.0)",164.983
437,nav,4,6,right,2021-10-07 13:58:58.475404-07:00,"(4.0, 1.0)",135.272
438,nav,4,6,right,2021-10-07 13:58:58.610925-07:00,"(5.0, 1.0)",135.52100000000002
439,nav,4,6,down,2021-10-07 13:58:59.260428-07:00,"(5.0, 2.0)",649.503
440,nav,4,6,down,2021-10-07 13:58:59.524573-07:00,"(5.0, 3.0)",264.14500000000004
441,nav,4,6,down,2021-10-07 13:58:59.676666-07:00,"(5.0, 4.0)",152.09300000000002
442,nav,4,6,down,2021-10-07 13:58:59.996556-07:00,"(5.0, 5.0)",319.89
443,nav,4,6,down,2021-10-07 13:59:00.171767-07:00,"(5.0, 6.0)",175.211
444,nav,4,6,down,2021-10-07 13:59:00.303367-07:00,"(5.0, 7.0)",131.6
445,nav,4,6,right,2021-10-07 13:59:00.532052-07:00,"(6.0, 7.0)",228.685
446,nav,4,6,right,2021-10-07 13:59:00.688488-07:00,"(7.0, 7.0)",156.43599999999998
447,nav,4,6,up,2021-10-07 13:59:00.884461-07:00,"(7.0, 6.0)",195.973
448,nav,4,7,start,2021-10-07 13:59:01.999330-07:00,"(1.0, 1.0)",0
449,nav,4,7,right,2021-10-07 13:59:09.849668-07:00,"(2.0, 1.0)",7850.338
450,nav,4,7,down,2021-10-07 13:59:10.286292-07:00,"(2.0, 2.0)",436.624
451,nav,4,7,down,2021-10-07 13:59:10.427624-07:00,"(2.0, 3.0)",141.33200000000002
452,nav,4,7,down,2021-10-07 13:59:10.582450-07:00,"(2.0, 4.0)",154.826
453,nav,4,7,right,2021-10-07 13:59:10.821903-07:00,"(3.0, 4.0)",239.453
454,nav,4,7,right,2021-10-07 13:59:10.984445-07:00,"(4.0, 4.0)",162.542
455,nav,4,7,up,2021-10-07 13:59:11.159567-07:00,"(4.0, 3.0)",175.122
456,nav,4,7,up,2021-10-07 13:59:11.304570-07:00,"(4.0, 2.0)",145.003
457,nav,4,7,up,2021-10-07 13:59:11.454083-07:00,"(4.0, 1.0)",149.513
458,nav,4,8,start,2021-10-07 13:59:12.569434-07:00,"(1.0, 1.0)",0
459,nav,4,8,right,2021-10-07 13:59:17.611772-07:00,"(2.0, 1.0)",5042.338
460,nav,4,8,right,2021-10-07 13:59:17.760755-07:00,"(3.0, 1.0)",148.983
461,nav,4,8,right,2021-10-07 13:59:17.898295-07:00,"(4.0, 1.0)",137.54
462,nav,4,8,right,2021-10-07 13:59:18.044878-07:00,"(5.0, 1.0)",146.583
463,nav,4,8,right,2021-10-07 13:59:22.351840-07:00,"(6.0, 1.0)",4306.962
464,nav,4,8,down,2021-10-07 13:59:22.614149-07:00,"(6.0, 2.0)",262.309
465,nav,4,8,down,2021-10-07 13:59:22.798246-07:00,"(6.0, 3.0)",184.097
466,nav,4,8,left,2021-10-07 13:59:22.999387-07:00,"(5.0, 3.0)",201.141
467,nav,4,8,left,2021-10-07 13:59:23.136906-07:00,"(4.0, 3.0)",137.519
468,nav,4,8,left,2021-10-07 13:59:23.288024-07:00,"(3.0, 3.0)",151.118
469,quiz,4,1,,,"(9.0, 4.0)",
470,quiz,4,2,,,"(6.0, 7.0)",
471,quiz,4,3,,,"(3.0, 4.0)",
472,quiz,4,4,,,"(3.0, 4.0)",
473,quiz,4,5,,,"(3.0, 4.0)",
474,quiz,4,6,,,"(3.0, 4.0)",
475,quiz,4,7,,,"(5.0, 4.0)",
476,quiz,4,8,,,"(3.0, 5.0)",
477,nav,5,1,start,2021-10-07 14:00:37.819014-07:00,"(1.0, 1.0)",0
478,nav,5,1,right,2021-10-07 14:01:38.393007-07:00,"(2.0, 1.0)",60573.993
479,nav,5,1,down,2021-10-07 14:01:38.705764-07:00,"(2.0, 2.0)",312.757
480,nav,5,1,down,2021-10-07 14:01:38.810350-07:00,"(2.0, 3.0)",104.586
481,nav,5,1,down,2021-10-07 14:01:38.968840-07:00,"(2.0, 4.0)",158.48999999999998
482,nav,5,1,right,2021-10-07 14:01:39.465112-07:00,"(3.0, 4.0)",496.272
483,nav,5,1,right,2021-10-07 14:01:39.465145-07:00,"(4.0, 4.0)",0.033
484,nav,5,1,up,2021-10-07 14:01:39.902756-07:00,"(4.0, 3.0)",437.61100000000005
485,nav,5,1,up,2021-10-07 14:01:40.041534-07:00,"(4.0, 2.0)",138.77800000000002
486,nav,5,1,up,2021-10-07 14:01:40.399298-07:00,"(4.0, 1.0)",357.764
487,nav,5,1,right,2021-10-07 14:01:40.687768-07:00,"(5.0, 1.0)",288.47
488,nav,5,1,right,2021-10-07 14:01:40.829762-07:00,"(6.0, 1.0)",141.994
489,nav,5,1,right,2021-10-07 14:01:40.969802-07:00,"(7.0, 1.0)",140.04
490,nav,5,1,right,2021-10-07 14:01:41.259342-07:00,"(8.0, 1.0)",289.54
491,nav,5,1,left,2021-10-07 14:01:41.711412-07:00,"(7.0, 1.0)",452.07000000000005
492,nav,5,1,left,2021-10-07 14:01:41.831832-07:00,"(6.0, 1.0)",120.42
493,nav,5,1,left,2021-10-07 14:01:41.984810-07:00,"(5.0, 1.0)",152.978
494,nav,5,1,left,2021-10-07 14:01:42.118965-07:00,"(4.0, 1.0)",134.155
495,nav,5,1,down,2021-10-07 14:01:42.385645-07:00,"(4.0, 2.0)",266.67999999999995
496,nav,5,1,down,2021-10-07 14:01:42.520841-07:00,"(4.0, 3.0)",135.196
497,nav,5,1,down,2021-10-07 14:01:42.738355-07:00,"(4.0, 4.0)",217.514
498,nav,5,1,left,2021-10-07 14:01:43.103260-07:00,"(3.0, 4.0)",364.905
499,nav,5,1,left,2021-10-07 14:01:43.255673-07:00,"(2.0, 4.0)",152.41299999999998
500,nav,5,1,left,2021-10-07 14:01:43.390058-07:00,"(1.0, 4.0)",134.385
501,nav,5,1,down,2021-10-07 14:01:43.679878-07:00,"(1.0, 5.0)",289.82000000000005
502,nav,5,1,down,2021-10-07 14:01:43.809382-07:00,"(1.0, 6.0)",129.50400000000002
503,nav,5,1,down,2021-10-07 14:01:43.970090-07:00,"(1.0, 7.0)",160.708
504,nav,5,1,right,2021-10-07 14:01:44.370627-07:00,"(2.0, 7.0)",400.537
505,nav,5,1,right,2021-10-07 14:01:44.521999-07:00,"(3.0, 7.0)",151.372
506,nav,5,1,right,2021-10-07 14:01:44.695009-07:00,"(4.0, 7.0)",173.01
507,nav,5,1,left,2021-10-07 14:01:45.046307-07:00,"(3.0, 7.0)",351.298
508,nav,5,1,up,2021-10-07 14:01:45.288142-07:00,"(3.0, 6.0)",241.835
509,nav,5,2,start,2021-10-07 14:01:46.403578-07:00,"(1.0, 1.0)",0
510,nav,5,2,right,2021-10-07 14:01:48.259971-07:00,"(2.0, 1.0)",1856.393
511,nav,5,2,down,2021-10-07 14:01:48.504558-07:00,"(2.0, 2.0)",244.587
512,nav,5,2,down,2021-10-07 14:01:48.659020-07:00,"(2.0, 3.0)",154.462
513,nav,5,2,down,2021-10-07 14:01:48.795193-07:00,"(2.0, 4.0)",136.173
514,nav,5,2,right,2021-10-07 14:01:49.041161-07:00,"(3.0, 4.0)",245.968
515,nav,5,2,right,2021-10-07 14:01:49.206784-07:00,"(4.0, 4.0)",165.623
516,nav,5,2,up,2021-10-07 14:01:49.385399-07:00,"(4.0, 3.0)",178.615
517,nav,5,2,up,2021-10-07 14:01:49.554107-07:00,"(4.0, 2.0)",168.708
518,nav,5,2,up,2021-10-07 14:01:49.688657-07:00,"(4.0, 1.0)",134.55
519,nav,5,2,down,2021-10-07 14:01:49.989560-07:00,"(4.0, 2.0)",300.90299999999996
520,nav,5,2,down,2021-10-07 14:01:50.154533-07:00,"(4.0, 3.0)",164.973
521,nav,5,2,down,2021-10-07 14:01:50.300843-07:00,"(4.0, 4.0)",146.31
522,nav,5,2,right,2021-10-07 14:01:50.740792-07:00,"(5.0, 4.0)",439.94899999999996
523,nav,5,2,right,2021-10-07 14:01:50.890414-07:00,"(6.0, 4.0)",149.622
524,nav,5,2,down,2021-10-07 14:01:51.084929-07:00,"(6.0, 5.0)",194.515
525,nav,5,2,down,2021-10-07 14:01:51.261875-07:00,"(6.0, 6.0)",176.946
526,nav,5,2,up,2021-10-07 14:01:51.612408-07:00,"(6.0, 5.0)",350.53299999999996
527,nav,5,2,right,2021-10-07 14:01:51.840671-07:00,"(7.0, 5.0)",228.263
528,nav,5,2,right,2021-10-07 14:01:52.016599-07:00,"(8.0, 5.0)",175.928
529,nav,5,2,right,2021-10-07 14:01:52.154613-07:00,"(9.0, 5.0)",138.014
530,nav,5,2,up,2021-10-07 14:01:52.448458-07:00,"(9.0, 4.0)",293.845
531,nav,5,2,up,2021-10-07 14:01:52.615717-07:00,"(9.0, 3.0)",167.259
532,nav,5,2,up,2021-10-07 14:01:52.759650-07:00,"(9.0, 2.0)",143.933
533,nav,5,2,left,2021-10-07 14:01:52.992058-07:00,"(8.0, 2.0)",232.40800000000002
534,nav,5,3,start,2021-10-07 14:01:54.105867-07:00,"(1.0, 1.0)",0
535,nav,5,3,right,2021-10-07 14:01:54.736573-07:00,"(2.0, 1.0)",630.706
536,nav,5,3,down,2021-10-07 14:01:54.999148-07:00,"(2.0, 2.0)",262.575
537,nav,5,3,down,2021-10-07 14:01:55.154609-07:00,"(2.0, 3.0)",155.46099999999998
538,nav,5,3,down,2021-10-07 14:01:55.509847-07:00,"(2.0, 4.0)",355.238
539,nav,5,3,right,2021-10-07 14:01:55.711974-07:00,"(3.0, 4.0)",202.127
540,nav,5,3,right,2021-10-07 14:01:56.382548-07:00,"(4.0, 4.0)",670.574
541,nav,5,3,up,2021-10-07 14:01:56.566867-07:00,"(4.0, 3.0)",184.31900000000002
542,nav,5,3,up,2021-10-07 14:01:56.730705-07:00,"(4.0, 2.0)",163.83800000000002
543,nav,5,3,up,2021-10-07 14:01:57.099943-07:00,"(4.0, 1.0)",369.238
544,nav,5,4,start,2021-10-07 14:01:58.217287-07:00,"(1.0, 1.0)",0
545,nav,5,4,right,2021-10-07 14:01:58.852559-07:00,"(2.0, 1.0)",635.2719999999999
546,nav,5,4,right,2021-10-07 14:01:59.003564-07:00,"(3.0, 1.0)",151.005
547,nav,5,4,right,2021-10-07 14:01:59.162801-07:00,"(4.0, 1.0)",159.237
548,nav,5,4,right,2021-10-07 14:01:59.301449-07:00,"(5.0, 1.0)",138.648
549,nav,5,4,down,2021-10-07 14:01:59.587470-07:00,"(5.0, 2.0)",286.021
550,nav,5,4,down,2021-10-07 14:01:59.761696-07:00,"(5.0, 3.0)",174.226
551,nav,5,4,down,2021-10-07 14:01:59.918831-07:00,"(5.0, 4.0)",157.135
552,nav,5,4,down,2021-10-07 14:02:00.060880-07:00,"(5.0, 5.0)",142.049
553,nav,5,4,down,2021-10-07 14:02:00.170116-07:00,"(5.0, 6.0)",109.236
554,nav,5,4,down,2021-10-07 14:02:00.305989-07:00,"(5.0, 7.0)",135.873
555,nav,5,4,right,2021-10-07 14:02:00.485714-07:00,"(6.0, 7.0)",179.725
556,nav,5,4,right,2021-10-07 14:02:00.676253-07:00,"(7.0, 7.0)",190.539
557,nav,5,4,up,2021-10-07 14:02:00.897140-07:00,"(7.0, 6.0)",220.887
558,nav,5,5,start,2021-10-07 14:02:02.012246-07:00,"(1.0, 1.0)",0
559,nav,5,5,right,2021-10-07 14:02:03.394662-07:00,"(2.0, 1.0)",1382.4160000000002
560,nav,5,5,right,2021-10-07 14:02:03.562324-07:00,"(3.0, 1.0)",167.662
561,nav,5,5,right,2021-10-07 14:02:03.726788-07:00,"(4.0, 1.0)",164.464
562,nav,5,5,right,2021-10-07 14:02:03.858784-07:00,"(5.0, 1.0)",131.996
563,nav,5,5,right,2021-10-07 14:02:04.214036-07:00,"(6.0, 1.0)",355.252
564,nav,5,5,down,2021-10-07 14:02:04.420428-07:00,"(6.0, 2.0)",206.392
565,nav,5,5,down,2021-10-07 14:02:04.571232-07:00,"(6.0, 3.0)",150.804
566,nav,5,5,down,2021-10-07 14:02:04.923027-07:00,"(6.0, 4.0)",351.795
567,nav,5,5,left,2021-10-07 14:02:05.147168-07:00,"(5.0, 4.0)",224.14100000000002
568,nav,5,5,left,2021-10-07 14:02:05.286222-07:00,"(4.0, 4.0)",139.054
569,nav,5,5,left,2021-10-07 14:02:05.434950-07:00,"(3.0, 4.0)",148.728
570,nav,5,5,down,2021-10-07 14:02:05.958164-07:00,"(3.0, 5.0)",523.2139999999999
571,nav,5,5,left,2021-10-07 14:02:06.230582-07:00,"(2.0, 5.0)",272.418
572,nav,5,5,left,2021-10-07 14:02:06.397484-07:00,"(1.0, 5.0)",166.902
573,nav,5,5,down,2021-10-07 14:02:06.602678-07:00,"(1.0, 6.0)",205.194
574,nav,5,5,down,2021-10-07 14:02:06.785096-07:00,"(1.0, 7.0)",182.418
575,nav,5,5,right,2021-10-07 14:02:06.960187-07:00,"(2.0, 7.0)",175.091
576,nav,5,5,right,2021-10-07 14:02:07.116620-07:00,"(3.0, 7.0)",156.433
577,nav,5,6,start,2021-10-07 14:02:08.223657-07:00,"(1.0, 1.0)",0
578,nav,5,6,right,2021-10-07 14:02:08.224779-07:00,"(2.0, 1.0)",1.1219999999999999
579,nav,5,6,down,2021-10-07 14:02:09.750975-07:00,"(2.0, 2.0)",1526.1960000000001
580,nav,5,6,down,2021-10-07 14:02:10.116265-07:00,"(2.0, 3.0)",365.29
581,nav,5,6,left,2021-10-07 14:02:10.394412-07:00,"(1.0, 3.0)",278.147
582,nav,5,6,down,2021-10-07 14:02:10.752085-07:00,"(1.0, 4.0)",357.673
583,nav,5,6,down,2021-10-07 14:02:10.934104-07:00,"(1.0, 5.0)",182.01899999999998
584,nav,5,6,right,2021-10-07 14:02:11.222995-07:00,"(2.0, 5.0)",288.891
585,nav,5,6,right,2021-10-07 14:02:11.396870-07:00,"(3.0, 5.0)",173.875
586,nav,5,6,right,2021-10-07 14:02:11.552885-07:00,"(4.0, 5.0)",156.015
587,nav,5,6,up,2021-10-07 14:02:11.765400-07:00,"(4.0, 4.0)",212.51500000000001
588,nav,5,6,up,2021-10-07 14:02:11.907469-07:00,"(4.0, 3.0)",142.069
589,nav,5,6,up,2021-10-07 14:02:12.067449-07:00,"(4.0, 2.0)",159.98000000000002
590,nav,5,6,up,2021-10-07 14:02:12.202360-07:00,"(4.0, 1.0)",134.911
591,nav,5,6,right,2021-10-07 14:02:12.538805-07:00,"(5.0, 1.0)",336.445
592,nav,5,6,right,2021-10-07 14:02:12.742442-07:00,"(6.0, 1.0)",203.637
593,nav,5,6,down,2021-10-07 14:02:13.144620-07:00,"(6.0, 2.0)",402.178
594,nav,5,7,start,2021-10-07 14:02:14.254285-07:00,"(1.0, 1.0)",0
595,nav,5,7,right,2021-10-07 14:02:15.044376-07:00,"(2.0, 1.0)",790.091
596,nav,5,7,right,2021-10-07 14:02:15.334520-07:00,"(3.0, 1.0)",290.144
597,nav,5,7,down,2021-10-07 14:02:15.561908-07:00,"(3.0, 2.0)",227.388
598,nav,5,7,down,2021-10-07 14:02:15.724696-07:00,"(3.0, 3.0)",162.78799999999998
599,nav,5,7,right,2021-10-07 14:02:15.979121-07:00,"(4.0, 3.0)",254.425
600,nav,5,7,right,2021-10-07 14:02:16.140422-07:00,"(5.0, 3.0)",161.301
601,nav,5,7,up,2021-10-07 14:02:16.386981-07:00,"(5.0, 2.0)",246.559
602,nav,5,7,up,2021-10-07 14:02:17.167547-07:00,"(5.0, 1.0)",780.566
603,nav,5,7,right,2021-10-07 14:02:17.396647-07:00,"(6.0, 1.0)",229.1
604,nav,5,7,right,2021-10-07 14:02:17.584679-07:00,"(7.0, 1.0)",188.032
605,nav,5,7,left,2021-10-07 14:02:17.884630-07:00,"(6.0, 1.0)",299.951
606,nav,5,7,left,2021-10-07 14:02:18.019609-07:00,"(5.0, 1.0)",134.97899999999998
607,nav,5,7,down,2021-10-07 14:02:18.270868-07:00,"(5.0, 2.0)",251.25900000000001
608,nav,5,7,down,2021-10-07 14:02:18.399217-07:00,"(5.0, 3.0)",128.349
609,nav,5,7,right,2021-10-07 14:02:18.802807-07:00,"(6.0, 3.0)",403.59000000000003
610,nav,5,7,right,2021-10-07 14:02:18.975959-07:00,"(7.0, 3.0)",173.152
611,nav,5,7,right,2021-10-07 14:02:19.118668-07:00,"(8.0, 3.0)",142.709
612,nav,5,7,right,2021-10-07 14:02:19.333855-07:00,"(9.0, 3.0)",215.18699999999998
613,nav,5,7,down,2021-10-07 14:02:19.631024-07:00,"(9.0, 4.0)",297.16900000000004
614,nav,5,7,down,2021-10-07 14:02:19.789087-07:00,"(9.0, 5.0)",158.06300000000002
615,nav,5,7,down,2021-10-07 14:02:19.937180-07:00,"(9.0, 6.0)",148.093
616,nav,5,7,down,2021-10-07 14:02:20.115585-07:00,"(9.0, 7.0)",178.405
617,nav,5,7,left,2021-10-07 14:02:20.559605-07:00,"(8.0, 7.0)",444.02000000000004
618,nav,5,8,start,2021-10-07 14:02:21.678005-07:00,"(1.0, 1.0)",0
619,nav,5,8,right,2021-10-07 14:02:22.119981-07:00,"(2.0, 1.0)",441.976
620,nav,5,8,right,2021-10-07 14:02:22.271266-07:00,"(3.0, 1.0)",151.285
621,nav,5,8,right,2021-10-07 14:02:22.556979-07:00,"(4.0, 1.0)",285.713
622,nav,5,8,right,2021-10-07 14:02:22.696867-07:00,"(5.0, 1.0)",139.888
623,nav,5,8,right,2021-10-07 14:02:23.199810-07:00,"(6.0, 1.0)",502.94300000000004
624,nav,5,8,down,2021-10-07 14:02:23.504637-07:00,"(6.0, 2.0)",304.827
625,nav,5,8,down,2021-10-07 14:02:23.661183-07:00,"(6.0, 3.0)",156.546
626,nav,5,8,down,2021-10-07 14:02:23.814611-07:00,"(6.0, 4.0)",153.428
627,nav,5,8,down,2021-10-07 14:02:23.939161-07:00,"(6.0, 5.0)",124.55
628,nav,5,8,up,2021-10-07 14:02:24.240587-07:00,"(6.0, 4.0)",301.42600000000004
629,nav,5,8,up,2021-10-07 14:02:24.396827-07:00,"(6.0, 3.0)",156.23999999999998
630,nav,5,8,left,2021-10-07 14:02:24.639722-07:00,"(5.0, 3.0)",242.895
631,nav,5,8,left,2021-10-07 14:02:24.768788-07:00,"(4.0, 3.0)",129.06599999999997
632,nav,5,8,left,2021-10-07 14:02:24.950015-07:00,"(3.0, 3.0)",181.227
633,quiz,5,1,,,"(4.0, 5.0)",
634,quiz,5,2,,,"(3.0, 4.0)",
635,quiz,5,3,,,"(3.0, 5.0)",
636,quiz,5,4,,,"(4.0, 5.0)",
637,quiz,5,5,,,"(3.0, 5.0)",
638,quiz,5,6,,,"(5.0, 4.0)",
639,quiz,5,7,,,"(3.0, 4.0)",
640,quiz,5,8,,,"(4.0, 4.0)",
641,nav,6,1,start,2021-10-07 14:03:50.545912-07:00,"(1.0, 1.0)",0
642,nav,6,1,right,2021-10-07 14:04:02.682075-07:00,"(2.0, 1.0)",12136.163
643,nav,6,1,down,2021-10-07 14:04:02.953698-07:00,"(2.0, 2.0)",271.623
644,nav,6,1,down,2021-10-07 14:04:03.071711-07:00,"(2.0, 3.0)",118.013
645,nav,6,1,down,2021-10-07 14:04:03.200720-07:00,"(2.0, 4.0)",129.00900000000001
646,nav,6,1,down,2021-10-07 14:04:03.336664-07:00,"(2.0, 5.0)",135.94400000000002
647,nav,6,1,down,2021-10-07 14:04:03.471709-07:00,"(2.0, 6.0)",135.045
648,nav,6,1,right,2021-10-07 14:04:03.755762-07:00,"(3.0, 6.0)",284.053
649,nav,6,1,right,2021-10-07 14:04:03.932028-07:00,"(4.0, 6.0)",176.26600000000002
650,nav,6,1,up,2021-10-07 14:04:04.181763-07:00,"(4.0, 5.0)",249.735
651,nav,6,1,up,2021-10-07 14:04:04.337729-07:00,"(4.0, 4.0)",155.96599999999998
652,nav,6,1,up,2021-10-07 14:04:04.483497-07:00,"(4.0, 3.0)",145.768
653,nav,6,1,up,2021-10-07 14:04:04.636566-07:00,"(4.0, 2.0)",153.06900000000002
654,nav,6,1,up,2021-10-07 14:04:04.783571-07:00,"(4.0, 1.0)",147.005
655,nav,6,2,start,2021-10-07 14:04:05.877985-07:00,"(1.0, 1.0)",0
656,nav,6,2,right,2021-10-07 14:04:06.366994-07:00,"(2.0, 1.0)",489.009
657,nav,6,2,right,2021-10-07 14:04:06.524071-07:00,"(3.0, 1.0)",157.077
658,nav,6,2,right,2021-10-07 14:04:06.662551-07:00,"(4.0, 1.0)",138.48
659,nav,6,2,right,2021-10-07 14:04:07.245427-07:00,"(5.0, 1.0)",582.876
660,nav,6,2,down,2021-10-07 14:04:07.485081-07:00,"(5.0, 2.0)",239.654
661,nav,6,2,down,2021-10-07 14:04:07.637549-07:00,"(5.0, 3.0)",152.468
662,nav,6,2,down,2021-10-07 14:04:07.757914-07:00,"(5.0, 4.0)",120.365
663,nav,6,2,down,2021-10-07 14:04:07.890858-07:00,"(5.0, 5.0)",132.94400000000002
664,nav,6,2,down,2021-10-07 14:04:08.032441-07:00,"(5.0, 6.0)",141.583
665,nav,6,2,down,2021-10-07 14:04:08.203851-07:00,"(5.0, 7.0)",171.41
666,nav,6,2,right,2021-10-07 14:04:08.458899-07:00,"(6.0, 7.0)",255.048
667,nav,6,2,right,2021-10-07 14:04:08.616264-07:00,"(7.0, 7.0)",157.365
668,nav,6,2,up,2021-10-07 14:04:08.779596-07:00,"(7.0, 6.0)",163.332
669,nav,6,3,start,2021-10-07 14:04:09.844585-07:00,"(1.0, 1.0)",0
670,nav,6,3,right,2021-10-07 14:04:10.520267-07:00,"(2.0, 1.0)",675.682
671,nav,6,3,down,2021-10-07 14:04:10.798896-07:00,"(2.0, 2.0)",278.629
672,nav,6,3,down,2021-10-07 14:04:10.955982-07:00,"(2.0, 3.0)",157.086
673,nav,6,3,down,2021-10-07 14:04:11.093095-07:00,"(2.0, 4.0)",137.113
674,nav,6,3,right,2021-10-07 14:04:11.400432-07:00,"(3.0, 4.0)",307.33700000000005
675,nav,6,3,right,2021-10-07 14:04:11.576461-07:00,"(4.0, 4.0)",176.029
676,nav,6,3,up,2021-10-07 14:04:12.012570-07:00,"(4.0, 3.0)",436.10900000000004
677,nav,6,3,up,2021-10-07 14:04:12.188579-07:00,"(4.0, 2.0)",176.009
678,nav,6,3,up,2021-10-07 14:04:12.322541-07:00,"(4.0, 1.0)",133.962
679,nav,6,3,right,2021-10-07 14:04:12.630808-07:00,"(5.0, 1.0)",308.267
680,nav,6,3,right,2021-10-07 14:04:12.790227-07:00,"(6.0, 1.0)",159.419
681,nav,6,3,right,2021-10-07 14:04:12.935231-07:00,"(7.0, 1.0)",145.004
682,nav,6,3,right,2021-10-07 14:04:13.130616-07:00,"(8.0, 1.0)",195.385
683,nav,6,3,down,2021-10-07 14:04:13.310065-07:00,"(8.0, 2.0)",179.44899999999998
684,nav,6,4,start,2021-10-07 14:04:14.380875-07:00,"(1.0, 1.0)",0
685,nav,6,4,right,2021-10-07 14:04:14.884565-07:00,"(2.0, 1.0)",503.69
686,nav,6,4,down,2021-10-07 14:04:15.101822-07:00,"(2.0, 2.0)",217.257
687,nav,6,4,down,2021-10-07 14:04:15.259604-07:00,"(2.0, 3.0)",157.782
688,nav,6,4,down,2021-10-07 14:04:15.394007-07:00,"(2.0, 4.0)",134.403
689,nav,6,4,right,2021-10-07 14:04:15.632674-07:00,"(3.0, 4.0)",238.667
690,nav,6,4,right,2021-10-07 14:04:15.811250-07:00,"(4.0, 4.0)",178.57600000000002
691,nav,6,4,up,2021-10-07 14:04:16.001863-07:00,"(4.0, 3.0)",190.613
692,nav,6,4,up,2021-10-07 14:04:16.179493-07:00,"(4.0, 2.0)",177.63000000000002
693,nav,6,4,up,2021-10-07 14:04:16.361411-07:00,"(4.0, 1.0)",181.918
694,nav,6,4,right,2021-10-07 14:04:16.662802-07:00,"(5.0, 1.0)",301.391
695,nav,6,4,right,2021-10-07 14:04:16.850834-07:00,"(6.0, 1.0)",188.032
696,nav,6,4,right,2021-10-07 14:04:17.213239-07:00,"(7.0, 1.0)",362.405
697,nav,6,4,right,2021-10-07 14:04:17.398425-07:00,"(8.0, 1.0)",185.18599999999998
698,nav,6,4,left,2021-10-07 14:04:17.835066-07:00,"(7.0, 1.0)",436.641
699,nav,6,4,left,2021-10-07 14:04:17.935485-07:00,"(6.0, 1.0)",100.419
700,nav,6,4,left,2021-10-07 14:04:18.104266-07:00,"(5.0, 1.0)",168.78099999999998
701,nav,6,4,left,2021-10-07 14:04:18.239752-07:00,"(4.0, 1.0)",135.486
702,nav,6,4,down,2021-10-07 14:04:18.502188-07:00,"(4.0, 2.0)",262.436
703,nav,6,4,down,2021-10-07 14:04:18.640002-07:00,"(4.0, 3.0)",137.814
704,nav,6,4,down,2021-10-07 14:04:18.818758-07:00,"(4.0, 4.0)",178.756
705,nav,6,4,left,2021-10-07 14:04:19.171239-07:00,"(3.0, 4.0)",352.481
706,nav,6,4,left,2021-10-07 14:04:19.343751-07:00,"(2.0, 4.0)",172.512
707,nav,6,4,left,2021-10-07 14:04:19.485594-07:00,"(1.0, 4.0)",141.843
708,nav,6,4,down,2021-10-07 14:04:19.755491-07:00,"(1.0, 5.0)",269.897
709,nav,6,4,down,2021-10-07 14:04:19.948142-07:00,"(1.0, 6.0)",192.65099999999998
710,nav,6,4,down,2021-10-07 14:04:20.078591-07:00,"(1.0, 7.0)",130.449
711,nav,6,4,right,2021-10-07 14:04:20.359497-07:00,"(2.0, 7.0)",280.906
712,nav,6,4,right,2021-10-07 14:04:20.656701-07:00,"(3.0, 7.0)",297.204
713,nav,6,4,up,2021-10-07 14:04:20.912443-07:00,"(3.0, 6.0)",255.74200000000002
714,nav,6,5,start,2021-10-07 14:04:22.014785-07:00,"(1.0, 1.0)",0
715,nav,6,5,right,2021-10-07 14:04:22.574689-07:00,"(2.0, 1.0)",559.904
716,nav,6,5,right,2021-10-07 14:04:22.742050-07:00,"(3.0, 1.0)",167.36100000000002
717,nav,6,5,right,2021-10-07 14:04:22.894917-07:00,"(4.0, 1.0)",152.867
718,nav,6,5,right,2021-10-07 14:04:23.158770-07:00,"(5.0, 1.0)",263.853
719,nav,6,5,right,2021-10-07 14:04:23.364160-07:00,"(6.0, 1.0)",205.39
720,nav,6,5,down,2021-10-07 14:04:23.610839-07:00,"(6.0, 2.0)",246.679
721,nav,6,5,down,2021-10-07 14:04:23.738306-07:00,"(6.0, 3.0)",127.467
722,nav,6,5,down,2021-10-07 14:04:23.940476-07:00,"(6.0, 4.0)",202.17
723,nav,6,5,down,2021-10-07 14:04:24.181408-07:00,"(6.0, 5.0)",240.93200000000002
724,nav,6,5,up,2021-10-07 14:04:24.587524-07:00,"(6.0, 4.0)",406.116
725,nav,6,5,left,2021-10-07 14:04:24.832341-07:00,"(5.0, 4.0)",244.817
726,nav,6,5,left,2021-10-07 14:04:25.009199-07:00,"(4.0, 4.0)",176.85799999999998
727,nav,6,5,left,2021-10-07 14:04:25.163119-07:00,"(3.0, 4.0)",153.92
728,nav,6,5,down,2021-10-07 14:04:25.451914-07:00,"(3.0, 5.0)",288.795
729,nav,6,5,left,2021-10-07 14:04:25.788132-07:00,"(2.0, 5.0)",336.218
730,nav,6,5,left,2021-10-07 14:04:25.952649-07:00,"(1.0, 5.0)",164.517
731,nav,6,5,down,2021-10-07 14:04:26.209046-07:00,"(1.0, 6.0)",256.397
732,nav,6,5,down,2021-10-07 14:04:26.379075-07:00,"(1.0, 7.0)",170.02900000000002
733,nav,6,5,right,2021-10-07 14:04:26.706000-07:00,"(2.0, 7.0)",326.925
734,nav,6,5,right,2021-10-07 14:04:26.907029-07:00,"(3.0, 7.0)",201.02900000000002
735,nav,6,6,start,2021-10-07 14:04:28.001224-07:00,"(1.0, 1.0)",0
736,nav,6,6,right,2021-10-07 14:04:28.461021-07:00,"(2.0, 1.0)",459.797
737,nav,6,6,right,2021-10-07 14:04:28.596309-07:00,"(3.0, 1.0)",135.28799999999998
738,nav,6,6,right,2021-10-07 14:04:28.776409-07:00,"(4.0, 1.0)",180.10000000000002
739,nav,6,6,right,2021-10-07 14:04:28.905930-07:00,"(5.0, 1.0)",129.521
740,nav,6,6,right,2021-10-07 14:04:29.356847-07:00,"(6.0, 1.0)",450.91700000000003
741,nav,6,6,down,2021-10-07 14:04:29.579856-07:00,"(6.0, 2.0)",223.00900000000001
742,nav,6,6,down,2021-10-07 14:04:29.741894-07:00,"(6.0, 3.0)",162.03799999999998
743,nav,6,6,left,2021-10-07 14:04:30.151848-07:00,"(5.0, 3.0)",409.954
744,nav,6,6,left,2021-10-07 14:04:30.313980-07:00,"(4.0, 3.0)",162.132
745,nav,6,6,left,2021-10-07 14:04:30.904060-07:00,"(3.0, 3.0)",590.08
746,nav,6,7,start,2021-10-07 14:04:31.981457-07:00,"(1.0, 1.0)",0
747,nav,6,7,right,2021-10-07 14:04:32.510596-07:00,"(2.0, 1.0)",529.139
748,nav,6,7,down,2021-10-07 14:04:32.804757-07:00,"(2.0, 2.0)",294.161
749,nav,6,7,down,2021-10-07 14:04:32.964886-07:00,"(2.0, 3.0)",160.129
750,nav,6,7,left,2021-10-07 14:04:33.181169-07:00,"(1.0, 3.0)",216.28300000000002
751,nav,6,7,down,2021-10-07 14:04:33.410619-07:00,"(1.0, 4.0)",229.45
752,nav,6,7,down,2021-10-07 14:04:33.579757-07:00,"(1.0, 5.0)",169.138
753,nav,6,7,right,2021-10-07 14:04:33.921244-07:00,"(2.0, 5.0)",341.48699999999997
754,nav,6,7,right,2021-10-07 14:04:34.101484-07:00,"(3.0, 5.0)",180.24
755,nav,6,7,right,2021-10-07 14:04:34.276725-07:00,"(4.0, 5.0)",175.241
756,nav,6,7,up,2021-10-07 14:04:34.520015-07:00,"(4.0, 4.0)",243.29000000000002
757,nav,6,7,up,2021-10-07 14:04:34.708655-07:00,"(4.0, 3.0)",188.64000000000001
758,nav,6,7,up,2021-10-07 14:04:34.857893-07:00,"(4.0, 2.0)",149.238
759,nav,6,7,up,2021-10-07 14:04:35.042260-07:00,"(4.0, 1.0)",184.367
760,nav,6,7,right,2021-10-07 14:04:35.354983-07:00,"(5.0, 1.0)",312.72299999999996
761,nav,6,7,right,2021-10-07 14:04:35.549856-07:00,"(6.0, 1.0)",194.873
762,nav,6,7,down,2021-10-07 14:04:35.923058-07:00,"(6.0, 2.0)",373.202
763,nav,6,8,start,2021-10-07 14:04:37.022979-07:00,"(1.0, 1.0)",0
764,nav,6,8,right,2021-10-07 14:04:37.570421-07:00,"(2.0, 1.0)",547.442
765,nav,6,8,right,2021-10-07 14:04:37.750288-07:00,"(3.0, 1.0)",179.867
766,nav,6,8,down,2021-10-07 14:04:37.954857-07:00,"(3.0, 2.0)",204.569
767,nav,6,8,down,2021-10-07 14:04:38.110979-07:00,"(3.0, 3.0)",156.122
768,nav,6,8,right,2021-10-07 14:04:38.339779-07:00,"(4.0, 3.0)",228.8
769,nav,6,8,right,2021-10-07 14:04:38.513007-07:00,"(5.0, 3.0)",173.22799999999998
770,nav,6,8,right,2021-10-07 14:04:38.689306-07:00,"(6.0, 3.0)",176.299
771,nav,6,8,right,2021-10-07 14:04:38.850577-07:00,"(7.0, 3.0)",161.271
772,nav,6,8,right,2021-10-07 14:04:38.963378-07:00,"(8.0, 3.0)",112.801
773,nav,6,8,right,2021-10-07 14:04:39.205679-07:00,"(9.0, 3.0)",242.301
774,nav,6,8,down,2021-10-07 14:04:39.519023-07:00,"(9.0, 4.0)",313.344
775,nav,6,8,down,2021-10-07 14:04:39.696122-07:00,"(9.0, 5.0)",177.09900000000002
776,nav,6,8,down,2021-10-07 14:04:39.830560-07:00,"(9.0, 6.0)",134.438
777,nav,6,8,down,2021-10-07 14:04:40.474637-07:00,"(9.0, 7.0)",644.077
778,nav,6,8,left,2021-10-07 14:04:40.739117-07:00,"(8.0, 7.0)",264.48
779,quiz,6,1,,,"(4.0, 6.0)",
780,quiz,6,2,,,"(1.0, 4.0)",
781,quiz,6,3,,,"(4.0, 4.0)",
782,quiz,6,4,,,"(3.0, 4.0)",
783,quiz,6,5,,,"(3.0, 4.0)",
784,quiz,6,6,,,"(2.0, 4.0)",
785,quiz,6,7,,,"(4.0, 4.0)",
786,quiz,6,8,,,"(3.0, 3.0)",
787,nav,7,1,start,2021-10-07 14:05:08.100576-07:00,"(1.0, 1.0)",0
788,nav,7,1,right,2021-10-07 14:05:20.961559-07:00,"(2.0, 1.0)",12860.982999999998
789,nav,7,1,right,2021-10-07 14:05:21.143632-07:00,"(3.0, 1.0)",182.073
790,nav,7,1,right,2021-10-07 14:05:21.291805-07:00,"(4.0, 1.0)",148.173
791,nav,7,1,right,2021-10-07 14:05:21.423290-07:00,"(5.0, 1.0)",131.48499999999999
792,nav,7,1,down,2021-10-07 14:05:21.725071-07:00,"(5.0, 2.0)",301.781
793,nav,7,1,down,2021-10-07 14:05:21.836383-07:00,"(5.0, 3.0)",111.312
794,nav,7,1,left,2021-10-07 14:05:22.073593-07:00,"(4.0, 3.0)",237.21
795,nav,7,1,left,2021-10-07 14:05:22.221264-07:00,"(3.0, 3.0)",147.671
796,nav,7,1,left,2021-10-07 14:05:22.378641-07:00,"(2.0, 3.0)",157.37699999999998
797,nav,7,1,right,2021-10-07 14:05:22.637006-07:00,"(3.0, 3.0)",258.365
798,nav,7,1,right,2021-10-07 14:05:22.808124-07:00,"(4.0, 3.0)",171.118
799,nav,7,1,right,2021-10-07 14:05:22.961131-07:00,"(5.0, 3.0)",153.007
800,nav,7,1,right,2021-10-07 14:05:23.112017-07:00,"(6.0, 3.0)",150.886
801,nav,7,1,right,2021-10-07 14:05:23.274685-07:00,"(7.0, 3.0)",162.668
802,nav,7,1,right,2021-10-07 14:05:23.403089-07:00,"(8.0, 3.0)",128.404
803,nav,7,1,down,2021-10-07 14:05:23.716127-07:00,"(8.0, 4.0)",313.038
804,nav,7,1,down,2021-10-07 14:05:23.852976-07:00,"(8.0, 5.0)",136.849
805,nav,7,2,start,2021-10-07 14:05:24.939125-07:00,"(1.0, 1.0)",0
806,nav,7,2,right,2021-10-07 14:05:38.939198-07:00,"(2.0, 1.0)",14000.073
807,nav,7,2,right,2021-10-07 14:05:39.098789-07:00,"(3.0, 1.0)",159.591
808,nav,7,2,down,2021-10-07 14:05:39.292339-07:00,"(3.0, 2.0)",193.55
809,nav,7,2,down,2021-10-07 14:05:39.458977-07:00,"(3.0, 3.0)",166.638
810,nav,7,2,right,2021-10-07 14:05:39.835982-07:00,"(4.0, 3.0)",377.005
811,nav,7,2,down,2021-10-07 14:05:40.164865-07:00,"(4.0, 4.0)",328.883
812,nav,7,2,down,2021-10-07 14:05:40.310736-07:00,"(4.0, 5.0)",145.871
813,nav,7,2,right,2021-10-07 14:05:40.530154-07:00,"(5.0, 5.0)",219.418
814,nav,7,2,right,2021-10-07 14:05:40.673597-07:00,"(6.0, 5.0)",143.44299999999998
815,nav,7,2,right,2021-10-07 14:05:40.837681-07:00,"(7.0, 5.0)",164.084
816,nav,7,2,up,2021-10-07 14:05:41.023145-07:00,"(7.0, 4.0)",185.464
817,nav,7,2,up,2021-10-07 14:05:41.196059-07:00,"(7.0, 3.0)",172.91400000000002
818,nav,7,2,right,2021-10-07 14:05:41.513508-07:00,"(8.0, 3.0)",317.44899999999996
819,nav,7,2,right,2021-10-07 14:05:41.656432-07:00,"(9.0, 3.0)",142.924
820,nav,7,2,down,2021-10-07 14:05:42.015285-07:00,"(9.0, 4.0)",358.85299999999995
821,nav,7,2,down,2021-10-07 14:05:42.162147-07:00,"(9.0, 5.0)",146.862
822,nav,7,2,down,2021-10-07 14:05:42.299013-07:00,"(9.0, 6.0)",136.86599999999999
823,nav,7,2,down,2021-10-07 14:05:42.457081-07:00,"(9.0, 7.0)",158.06799999999998
824,nav,7,2,up,2021-10-07 14:05:42.742294-07:00,"(9.0, 6.0)",285.213
825,nav,7,2,up,2021-10-07 14:05:42.903615-07:00,"(9.0, 5.0)",161.321
826,nav,7,2,left,2021-10-07 14:05:43.110583-07:00,"(8.0, 5.0)",206.96800000000002
827,nav,7,2,left,2021-10-07 14:05:43.260010-07:00,"(7.0, 5.0)",149.427
828,nav,7,2,left,2021-10-07 14:05:43.421475-07:00,"(6.0, 5.0)",161.465
829,nav,7,2,left,2021-10-07 14:05:43.556643-07:00,"(5.0, 5.0)",135.168
830,nav,7,2,left,2021-10-07 14:05:43.692609-07:00,"(4.0, 5.0)",135.966
831,nav,7,2,right,2021-10-07 14:05:44.093619-07:00,"(5.0, 5.0)",401.01
832,nav,7,2,right,2021-10-07 14:05:44.257357-07:00,"(6.0, 5.0)",163.738
833,nav,7,2,right,2021-10-07 14:05:44.400581-07:00,"(7.0, 5.0)",143.224
834,nav,7,2,left,2021-10-07 14:05:44.734314-07:00,"(6.0, 5.0)",333.733
835,nav,7,2,down,2021-10-07 14:05:44.933781-07:00,"(6.0, 6.0)",199.467
836,nav,7,2,down,2021-10-07 14:05:45.075795-07:00,"(6.0, 7.0)",142.014
837,nav,7,2,left,2021-10-07 14:05:45.382656-07:00,"(5.0, 7.0)",306.861
838,nav,7,2,left,2021-10-07 14:05:45.560059-07:00,"(4.0, 7.0)",177.403
839,nav,7,2,left,2021-10-07 14:05:45.675744-07:00,"(3.0, 7.0)",115.685
840,nav,7,2,left,2021-10-07 14:05:45.830492-07:00,"(2.0, 7.0)",154.748
841,nav,7,2,left,2021-10-07 14:05:46.302885-07:00,"(1.0, 7.0)",472.39300000000003
842,nav,7,3,start,2021-10-07 14:05:47.388826-07:00,"(1.0, 1.0)",0
843,nav,7,3,right,2021-10-07 14:05:47.944002-07:00,"(2.0, 1.0)",555.176
844,nav,7,3,right,2021-10-07 14:05:48.152877-07:00,"(3.0, 1.0)",208.875
845,nav,7,3,right,2021-10-07 14:05:48.280508-07:00,"(4.0, 1.0)",127.631
846,nav,7,3,right,2021-10-07 14:05:48.398386-07:00,"(5.0, 1.0)",117.878
847,nav,7,3,down,2021-10-07 14:05:48.613643-07:00,"(5.0, 2.0)",215.257
848,nav,7,3,down,2021-10-07 14:05:48.774192-07:00,"(5.0, 3.0)",160.549
849,nav,7,3,down,2021-10-07 14:05:48.912912-07:00,"(5.0, 4.0)",138.72
850,nav,7,3,down,2021-10-07 14:05:49.060243-07:00,"(5.0, 5.0)",147.331
851,nav,7,3,up,2021-10-07 14:05:49.331894-07:00,"(5.0, 4.0)",271.65099999999995
852,nav,7,3,down,2021-10-07 14:05:49.646157-07:00,"(5.0, 5.0)",314.26300000000003
853,nav,7,3,down,2021-10-07 14:05:50.036496-07:00,"(5.0, 6.0)",390.339
854,nav,7,3,left,2021-10-07 14:05:50.244226-07:00,"(4.0, 6.0)",207.73
855,nav,7,4,start,2021-10-07 14:05:51.358256-07:00,"(1.0, 1.0)",0
856,nav,7,4,right,2021-10-07 14:06:09.304599-07:00,"(2.0, 1.0)",17946.342999999997
857,nav,7,4,right,2021-10-07 14:06:09.460569-07:00,"(3.0, 1.0)",155.97
858,nav,7,4,right,2021-10-07 14:06:09.610576-07:00,"(4.0, 1.0)",150.007
859,nav,7,4,right,2021-10-07 14:06:09.755039-07:00,"(5.0, 1.0)",144.46300000000002
860,nav,7,4,right,2021-10-07 14:06:09.901256-07:00,"(6.0, 1.0)",146.217
861,nav,7,4,down,2021-10-07 14:06:10.110512-07:00,"(6.0, 2.0)",209.256
862,nav,7,4,down,2021-10-07 14:06:10.262478-07:00,"(6.0, 3.0)",151.96599999999998
863,nav,7,4,right,2021-10-07 14:06:10.603840-07:00,"(7.0, 3.0)",341.362
864,nav,7,4,right,2021-10-07 14:06:10.716878-07:00,"(8.0, 3.0)",113.038
865,nav,7,4,right,2021-10-07 14:06:10.880443-07:00,"(9.0, 3.0)",163.565
866,nav,7,4,down,2021-10-07 14:06:11.168622-07:00,"(9.0, 4.0)",288.17900000000003
867,nav,7,4,down,2021-10-07 14:06:11.338923-07:00,"(9.0, 5.0)",170.30100000000002
868,nav,7,4,down,2021-10-07 14:06:11.466833-07:00,"(9.0, 6.0)",127.91
869,nav,7,5,start,2021-10-07 14:06:12.555628-07:00,"(1.0, 1.0)",0
870,nav,7,5,right,2021-10-07 14:06:17.967196-07:00,"(2.0, 1.0)",5411.568
871,nav,7,5,right,2021-10-07 14:06:18.105153-07:00,"(3.0, 1.0)",137.957
872,nav,7,5,down,2021-10-07 14:06:18.360112-07:00,"(3.0, 2.0)",254.959
873,nav,7,5,down,2021-10-07 14:06:18.524948-07:00,"(3.0, 3.0)",164.836
874,nav,7,5,right,2021-10-07 14:06:18.851495-07:00,"(4.0, 3.0)",326.54699999999997
875,nav,7,5,right,2021-10-07 14:06:19.029619-07:00,"(5.0, 3.0)",178.124
876,nav,7,5,right,2021-10-07 14:06:19.162447-07:00,"(6.0, 3.0)",132.828
877,nav,7,5,right,2021-10-07 14:06:19.563854-07:00,"(7.0, 3.0)",401.40700000000004
878,nav,7,6,start,2021-10-07 14:06:20.639746-07:00,"(1.0, 1.0)",0
879,nav,7,6,right,2021-10-07 14:06:38.739845-07:00,"(2.0, 1.0)",18100.099000000002
880,nav,7,6,right,2021-10-07 14:06:38.837965-07:00,"(3.0, 1.0)",98.12
881,nav,7,6,right,2021-10-07 14:06:38.974289-07:00,"(4.0, 1.0)",136.324
882,nav,7,6,right,2021-10-07 14:06:39.420037-07:00,"(5.0, 1.0)",445.748
883,nav,7,6,down,2021-10-07 14:06:39.629971-07:00,"(5.0, 2.0)",209.934
884,nav,7,6,down,2021-10-07 14:06:39.774304-07:00,"(5.0, 3.0)",144.333
885,nav,7,6,left,2021-10-07 14:06:40.085468-07:00,"(4.0, 3.0)",311.164
886,nav,7,6,left,2021-10-07 14:06:40.240367-07:00,"(3.0, 3.0)",154.899
887,nav,7,6,left,2021-10-07 14:06:40.387626-07:00,"(2.0, 3.0)",147.25900000000001
888,nav,7,7,start,2021-10-07 14:06:41.470799-07:00,"(1.0, 1.0)",0
889,nav,7,7,right,2021-10-07 14:06:42.027258-07:00,"(2.0, 1.0)",556.4590000000001
890,nav,7,7,down,2021-10-07 14:06:42.350643-07:00,"(2.0, 2.0)",323.385
891,nav,7,7,down,2021-10-07 14:06:42.443789-07:00,"(2.0, 3.0)",93.146
892,nav,7,7,left,2021-10-07 14:06:42.809888-07:00,"(1.0, 3.0)",366.099
893,nav,7,7,down,2021-10-07 14:06:43.043790-07:00,"(1.0, 4.0)",233.902
894,nav,7,7,down,2021-10-07 14:06:43.228000-07:00,"(1.0, 5.0)",184.21
895,nav,7,7,right,2021-10-07 14:06:43.607953-07:00,"(2.0, 5.0)",379.953
896,nav,7,7,right,2021-10-07 14:06:43.819492-07:00,"(3.0, 5.0)",211.53900000000002
897,nav,7,7,right,2021-10-07 14:06:44.116413-07:00,"(4.0, 5.0)",296.921
898,nav,7,7,right,2021-10-07 14:06:44.414511-07:00,"(5.0, 5.0)",298.09799999999996
899,nav,7,7,up,2021-10-07 14:06:44.760679-07:00,"(5.0, 4.0)",346.16799999999995
900,nav,7,7,up,2021-10-07 14:06:45.194346-07:00,"(5.0, 3.0)",433.66700000000003
901,nav,7,7,up,2021-10-07 14:06:45.553502-07:00,"(5.0, 2.0)",359.15599999999995
902,nav,7,7,up,2021-10-07 14:06:45.768658-07:00,"(5.0, 1.0)",215.15599999999998
903,nav,7,7,right,2021-10-07 14:06:46.254808-07:00,"(6.0, 1.0)",486.15000000000003
904,nav,7,8,start,2021-10-07 14:06:47.345392-07:00,"(1.0, 1.0)",0
905,nav,7,8,right,2021-10-07 14:06:58.388052-07:00,"(2.0, 1.0)",11042.66
906,nav,7,8,down,2021-10-07 14:06:58.619534-07:00,"(2.0, 2.0)",231.482
907,nav,7,8,down,2021-10-07 14:06:58.731877-07:00,"(2.0, 3.0)",112.343
908,nav,7,8,left,2021-10-07 14:06:58.997785-07:00,"(1.0, 3.0)",265.90799999999996
909,nav,7,8,down,2021-10-07 14:06:59.236384-07:00,"(1.0, 4.0)",238.59900000000002
910,nav,7,8,down,2021-10-07 14:06:59.372061-07:00,"(1.0, 5.0)",135.677
911,nav,7,8,right,2021-10-07 14:06:59.624123-07:00,"(2.0, 5.0)",252.062
912,nav,7,8,right,2021-10-07 14:06:59.765099-07:00,"(3.0, 5.0)",140.976
913,nav,7,8,right,2021-10-07 14:06:59.944441-07:00,"(4.0, 5.0)",179.342
914,nav,7,8,up,2021-10-07 14:07:00.183379-07:00,"(4.0, 4.0)",238.93800000000002
915,nav,7,8,up,2021-10-07 14:07:00.337726-07:00,"(4.0, 3.0)",154.347
916,nav,7,8,up,2021-10-07 14:07:00.469739-07:00,"(4.0, 2.0)",132.013
917,quiz,7,1,,,"(9.0, 7.0)",
918,quiz,7,2,,,"(3.0, 3.0)",
919,quiz,7,3,,,"(2.0, 5.0)",
920,quiz,7,4,,,"(3.0, 3.0)",
921,quiz,7,5,,,"(4.0, 4.0)",
922,quiz,7,6,,,"(2.0, 5.0)",
923,quiz,7,7,,,"(5.0, 3.0)",
924,quiz,7,8,,,"(3.0, 4.0)",
925,nav,8,1,start,2021-10-07 14:08:09.942693-07:00,"(1.0, 1.0)",0
926,nav,8,1,right,2021-10-07 14:08:49.032965-07:00,"(2.0, 1.0)",39090.272
927,nav,8,1,down,2021-10-07 14:08:49.321857-07:00,"(2.0, 2.0)",288.892
928,nav,8,1,down,2021-10-07 14:08:49.477532-07:00,"(2.0, 3.0)",155.675
929,nav,8,1,left,2021-10-07 14:08:49.702255-07:00,"(1.0, 3.0)",224.723
930,nav,8,1,down,2021-10-07 14:08:49.923393-07:00,"(1.0, 4.0)",221.138
931,nav,8,1,down,2021-10-07 14:08:50.058844-07:00,"(1.0, 5.0)",135.451
932,nav,8,1,right,2021-10-07 14:08:50.407521-07:00,"(2.0, 5.0)",348.677
933,nav,8,1,right,2021-10-07 14:08:50.594555-07:00,"(3.0, 5.0)",187.034
934,nav,8,1,right,2021-10-07 14:08:52.643827-07:00,"(4.0, 5.0)",2049.2720000000004
935,nav,8,1,up,2021-10-07 14:08:52.909387-07:00,"(4.0, 4.0)",265.56
936,nav,8,1,up,2021-10-07 14:08:53.085627-07:00,"(4.0, 3.0)",176.24
937,nav,8,1,up,2021-10-07 14:08:53.193804-07:00,"(4.0, 2.0)",108.17699999999999
938,nav,8,2,start,2021-10-07 14:08:54.285846-07:00,"(1.0, 1.0)",0
939,nav,8,2,right,2021-10-07 14:09:00.389335-07:00,"(2.0, 1.0)",6103.489
940,nav,8,2,right,2021-10-07 14:09:00.529354-07:00,"(3.0, 1.0)",140.019
941,nav,8,2,right,2021-10-07 14:09:00.690004-07:00,"(4.0, 1.0)",160.64999999999998
942,nav,8,2,right,2021-10-07 14:09:00.831959-07:00,"(5.0, 1.0)",141.95499999999998
943,nav,8,2,down,2021-10-07 14:09:01.072939-07:00,"(5.0, 2.0)",240.98
944,nav,8,2,down,2021-10-07 14:09:01.233218-07:00,"(5.0, 3.0)",160.279
945,nav,8,2,left,2021-10-07 14:09:01.475895-07:00,"(4.0, 3.0)",242.677
946,nav,8,2,left,2021-10-07 14:09:01.626309-07:00,"(3.0, 3.0)",150.414
947,nav,8,2,left,2021-10-07 14:09:01.761707-07:00,"(2.0, 3.0)",135.398
948,nav,8,3,start,2021-10-07 14:09:02.840495-07:00,"(1.0, 1.0)",0
949,nav,8,3,right,2021-10-07 14:09:06.620228-07:00,"(2.0, 1.0)",3779.7329999999997
950,nav,8,3,right,2021-10-07 14:09:06.784046-07:00,"(3.0, 1.0)",163.81799999999998
951,nav,8,3,down,2021-10-07 14:09:07.004896-07:00,"(3.0, 2.0)",220.85
952,nav,8,3,down,2021-10-07 14:09:07.153744-07:00,"(3.0, 3.0)",148.848
953,nav,8,3,left,2021-10-07 14:09:07.517311-07:00,"(2.0, 3.0)",363.56699999999995
954,nav,8,3,left,2021-10-07 14:09:07.647007-07:00,"(1.0, 3.0)",129.696
955,nav,8,3,down,2021-10-07 14:09:07.878065-07:00,"(1.0, 4.0)",231.05800000000002
956,nav,8,3,down,2021-10-07 14:09:08.027400-07:00,"(1.0, 5.0)",149.335
957,nav,8,3,right,2021-10-07 14:09:08.362436-07:00,"(2.0, 5.0)",335.036
958,nav,8,3,down,2021-10-07 14:09:08.617239-07:00,"(2.0, 6.0)",254.803
959,nav,8,3,down,2021-10-07 14:09:08.785722-07:00,"(2.0, 7.0)",168.483
960,nav,8,3,left,2021-10-07 14:09:09.081804-07:00,"(1.0, 7.0)",296.082
961,nav,8,4,start,2021-10-07 14:09:10.179482-07:00,"(1.0, 1.0)",0
962,nav,8,4,right,2021-10-07 14:09:16.641082-07:00,"(2.0, 1.0)",6461.599999999999
963,nav,8,4,right,2021-10-07 14:09:16.794163-07:00,"(3.0, 1.0)",153.081
964,nav,8,4,right,2021-10-07 14:09:16.929425-07:00,"(4.0, 1.0)",135.262
965,nav,8,4,right,2021-10-07 14:09:17.143631-07:00,"(5.0, 1.0)",214.20600000000002
966,nav,8,4,right,2021-10-07 14:09:17.583832-07:00,"(6.0, 1.0)",440.201
967,nav,8,4,down,2021-10-07 14:09:17.777294-07:00,"(6.0, 2.0)",193.462
968,nav,8,4,down,2021-10-07 14:09:17.930778-07:00,"(6.0, 3.0)",153.484
969,nav,8,4,right,2021-10-07 14:09:18.146872-07:00,"(7.0, 3.0)",216.094
970,nav,8,4,right,2021-10-07 14:09:18.310811-07:00,"(8.0, 3.0)",163.939
971,nav,8,4,right,2021-10-07 14:09:18.449865-07:00,"(9.0, 3.0)",139.054
972,nav,8,4,down,2021-10-07 14:09:18.642716-07:00,"(9.0, 4.0)",192.851
973,nav,8,4,down,2021-10-07 14:09:18.787319-07:00,"(9.0, 5.0)",144.603
974,nav,8,4,down,2021-10-07 14:09:19.141415-07:00,"(9.0, 6.0)",354.096
975,nav,8,5,start,2021-10-07 14:09:20.223650-07:00,"(1.0, 1.0)",0
976,nav,8,5,right,2021-10-07 14:09:24.053108-07:00,"(2.0, 1.0)",3829.4579999999996
977,nav,8,5,right,2021-10-07 14:09:24.169926-07:00,"(3.0, 1.0)",116.81800000000001
978,nav,8,5,right,2021-10-07 14:09:24.297780-07:00,"(4.0, 1.0)",127.854
979,nav,8,5,right,2021-10-07 14:09:24.485809-07:00,"(5.0, 1.0)",188.029
980,nav,8,5,down,2021-10-07 14:09:24.708781-07:00,"(5.0, 2.0)",222.972
981,nav,8,5,down,2021-10-07 14:09:24.858120-07:00,"(5.0, 3.0)",149.339
982,nav,8,5,right,2021-10-07 14:09:25.086017-07:00,"(6.0, 3.0)",227.897
983,nav,8,5,right,2021-10-07 14:09:25.237151-07:00,"(7.0, 3.0)",151.134
984,nav,8,5,right,2021-10-07 14:09:25.376241-07:00,"(8.0, 3.0)",139.09
985,nav,8,5,down,2021-10-07 14:09:25.579437-07:00,"(8.0, 4.0)",203.196
986,nav,8,5,down,2021-10-07 14:09:25.806187-07:00,"(8.0, 5.0)",226.75
987,nav,8,6,start,2021-10-07 14:09:26.873913-07:00,"(1.0, 1.0)",0
988,nav,8,6,right,2021-10-07 14:09:33.585131-07:00,"(2.0, 1.0)",6711.218
989,nav,8,6,down,2021-10-07 14:09:33.888605-07:00,"(2.0, 2.0)",303.47400000000005
990,nav,8,6,down,2021-10-07 14:09:33.995111-07:00,"(2.0, 3.0)",106.506
991,nav,8,6,left,2021-10-07 14:09:34.308660-07:00,"(1.0, 3.0)",313.54900000000004
992,nav,8,6,down,2021-10-07 14:09:34.663435-07:00,"(1.0, 4.0)",354.77500000000003
993,nav,8,6,down,2021-10-07 14:09:34.806295-07:00,"(1.0, 5.0)",142.85999999999999
994,nav,8,6,right,2021-10-07 14:09:35.069901-07:00,"(2.0, 5.0)",263.606
995,nav,8,6,right,2021-10-07 14:09:35.229503-07:00,"(3.0, 5.0)",159.602
996,nav,8,6,right,2021-10-07 14:09:35.402538-07:00,"(4.0, 5.0)",173.035
997,nav,8,6,right,2021-10-07 14:09:36.066884-07:00,"(5.0, 5.0)",664.346
998,nav,8,6,up,2021-10-07 14:09:36.252711-07:00,"(5.0, 4.0)",185.827
999,nav,8,6,up,2021-10-07 14:09:36.403270-07:00,"(5.0, 3.0)",150.559
1000,nav,8,6,up,2021-10-07 14:09:36.563606-07:00,"(5.0, 2.0)",160.336
1001,nav,8,6,up,2021-10-07 14:09:36.692860-07:00,"(5.0, 1.0)",129.25400000000002
1002,nav,8,6,right,2021-10-07 14:09:37.918236-07:00,"(6.0, 1.0)",1225.376
1003,nav,8,7,start,2021-10-07 14:09:39.002299-07:00,"(1.0, 1.0)",0
1004,nav,8,7,right,2021-10-07 14:09:44.473160-07:00,"(2.0, 1.0)",5470.861
1005,nav,8,7,right,2021-10-07 14:09:44.619110-07:00,"(3.0, 1.0)",145.95
1006,nav,8,7,right,2021-10-07 14:09:44.769136-07:00,"(4.0, 1.0)",150.02599999999998
1007,nav,8,7,right,2021-10-07 14:09:44.910878-07:00,"(5.0, 1.0)",141.74200000000002
1008,nav,8,7,down,2021-10-07 14:09:45.152275-07:00,"(5.0, 2.0)",241.397
1009,nav,8,7,down,2021-10-07 14:09:45.284631-07:00,"(5.0, 3.0)",132.356
1010,nav,8,7,down,2021-10-07 14:09:45.432873-07:00,"(5.0, 4.0)",148.24200000000002
1011,nav,8,7,down,2021-10-07 14:09:45.578106-07:00,"(5.0, 5.0)",145.233
1012,nav,8,7,down,2021-10-07 14:09:45.692514-07:00,"(5.0, 6.0)",114.408
1013,nav,8,7,left,2021-10-07 14:09:45.936988-07:00,"(4.0, 6.0)",244.474
1014,nav,8,8,start,2021-10-07 14:09:47.006908-07:00,"(1.0, 1.0)",0
1015,nav,8,8,right,2021-10-07 14:09:50.899094-07:00,"(2.0, 1.0)",3892.186
1016,nav,8,8,right,2021-10-07 14:09:51.053865-07:00,"(3.0, 1.0)",154.771
1017,nav,8,8,down,2021-10-07 14:09:51.434563-07:00,"(3.0, 2.0)",380.698
1018,nav,8,8,down,2021-10-07 14:09:51.551150-07:00,"(3.0, 3.0)",116.58699999999999
1019,nav,8,8,right,2021-10-07 14:09:51.923124-07:00,"(4.0, 3.0)",371.97400000000005
1020,nav,8,8,right,2021-10-07 14:09:52.087743-07:00,"(5.0, 3.0)",164.619
1021,nav,8,8,right,2021-10-07 14:09:52.230887-07:00,"(6.0, 3.0)",143.144
1022,nav,8,8,right,2021-10-07 14:09:52.362973-07:00,"(7.0, 3.0)",132.086
1023,quiz,8,1,,,"(9.0, 3.0)",
1024,quiz,8,2,,,"(3.0, 3.0)",
1025,quiz,8,3,,,"(3.0, 3.0)",
1026,quiz,8,4,,,"(3.0, 3.0)",
1027,quiz,8,5,,,"(3.0, 4.0)",
1028,quiz,8,6,,,"(3.0, 5.0)",
1029,quiz,8,7,,,"(4.0, 5.0)",
1030,quiz,8,8,,,"(3.0, 5.0)",
1031,nav,9,1,start,2021-10-07 14:11:02.792641-07:00,"(1.0, 1.0)",0
1032,nav,9,1,right,2021-10-07 14:11:41.208683-07:00,"(2.0, 1.0)",38416.041999999994
1033,nav,9,1,right,2021-10-07 14:11:41.368470-07:00,"(3.0, 1.0)",159.787
1034,nav,9,1,down,2021-10-07 14:11:41.641157-07:00,"(3.0, 2.0)",272.687
1035,nav,9,1,down,2021-10-07 14:11:41.772665-07:00,"(3.0, 3.0)",131.508
1036,nav,9,1,left,2021-10-07 14:11:42.028413-07:00,"(2.0, 3.0)",255.74799999999996
1037,nav,9,1,left,2021-10-07 14:11:42.256409-07:00,"(1.0, 3.0)",227.996
1038,nav,9,1,down,2021-10-07 14:11:42.535529-07:00,"(1.0, 4.0)",279.12
1039,nav,9,1,down,2021-10-07 14:11:42.685214-07:00,"(1.0, 5.0)",149.685
1040,nav,9,1,right,2021-10-07 14:11:42.951894-07:00,"(2.0, 5.0)",266.67999999999995
1041,nav,9,1,down,2021-10-07 14:11:43.157492-07:00,"(2.0, 6.0)",205.598
1042,nav,9,1,down,2021-10-07 14:11:43.322363-07:00,"(2.0, 7.0)",164.87099999999998
1043,nav,9,1,right,2021-10-07 14:11:43.536595-07:00,"(3.0, 7.0)",214.232
1044,nav,9,1,left,2021-10-07 14:11:43.882968-07:00,"(2.0, 7.0)",346.373
1045,nav,9,1,left,2021-10-07 14:11:44.046895-07:00,"(1.0, 7.0)",163.927
1046,nav,9,2,start,2021-10-07 14:11:45.135058-07:00,"(1.0, 1.0)",0
1047,nav,9,2,right,2021-10-07 14:11:45.671713-07:00,"(2.0, 1.0)",536.655
1048,nav,9,2,right,2021-10-07 14:11:46.007997-07:00,"(3.0, 1.0)",336.28400000000005
1049,nav,9,2,down,2021-10-07 14:11:46.307883-07:00,"(3.0, 2.0)",299.88599999999997
1050,nav,9,2,down,2021-10-07 14:11:46.469328-07:00,"(3.0, 3.0)",161.445
1051,nav,9,2,down,2021-10-07 14:11:46.599305-07:00,"(3.0, 4.0)",129.977
1052,nav,9,2,down,2021-10-07 14:11:46.968625-07:00,"(3.0, 5.0)",369.32
1053,nav,9,2,right,2021-10-07 14:11:47.600395-07:00,"(4.0, 5.0)",631.7700000000001
1054,nav,9,2,right,2021-10-07 14:11:47.767034-07:00,"(5.0, 5.0)",166.639
1055,nav,9,2,right,2021-10-07 14:11:47.955768-07:00,"(6.0, 5.0)",188.734
1056,nav,9,2,right,2021-10-07 14:11:48.096032-07:00,"(7.0, 5.0)",140.264
1057,nav,9,2,up,2021-10-07 14:11:48.431753-07:00,"(7.0, 4.0)",335.721
1058,nav,9,2,up,2021-10-07 14:11:48.605062-07:00,"(7.0, 3.0)",173.309
1059,nav,9,3,start,2021-10-07 14:11:49.677918-07:00,"(1.0, 1.0)",0
1060,nav,9,3,right,2021-10-07 14:11:50.178507-07:00,"(2.0, 1.0)",500.58899999999994
1061,nav,9,3,down,2021-10-07 14:11:50.397574-07:00,"(2.0, 2.0)",219.067
1062,nav,9,3,down,2021-10-07 14:11:50.548774-07:00,"(2.0, 3.0)",151.2
1063,nav,9,3,left,2021-10-07 14:11:50.782413-07:00,"(1.0, 3.0)",233.639
1064,nav,9,3,down,2021-10-07 14:11:51.010979-07:00,"(1.0, 4.0)",228.566
1065,nav,9,3,down,2021-10-07 14:11:51.164884-07:00,"(1.0, 5.0)",153.90499999999997
1066,nav,9,3,right,2021-10-07 14:11:51.408410-07:00,"(2.0, 5.0)",243.52599999999998
1067,nav,9,3,right,2021-10-07 14:11:51.564621-07:00,"(3.0, 5.0)",156.21099999999998
1068,nav,9,3,right,2021-10-07 14:11:51.725640-07:00,"(4.0, 5.0)",161.019
1069,nav,9,3,right,2021-10-07 14:11:51.890273-07:00,"(5.0, 5.0)",164.633
1070,nav,9,3,up,2021-10-07 14:11:52.306177-07:00,"(5.0, 4.0)",415.904
1071,nav,9,3,up,2021-10-07 14:11:52.593516-07:00,"(5.0, 3.0)",287.339
1072,nav,9,3,up,2021-10-07 14:11:52.764806-07:00,"(5.0, 2.0)",171.29
1073,nav,9,3,up,2021-10-07 14:11:52.961770-07:00,"(5.0, 1.0)",196.964
1074,nav,9,3,right,2021-10-07 14:11:53.250924-07:00,"(6.0, 1.0)",289.154
1075,nav,9,4,start,2021-10-07 14:11:54.325550-07:00,"(1.0, 1.0)",0
1076,nav,9,4,right,2021-10-07 14:11:54.823695-07:00,"(2.0, 1.0)",498.145
1077,nav,9,4,right,2021-10-07 14:11:54.991866-07:00,"(3.0, 1.0)",168.171
1078,nav,9,4,right,2021-10-07 14:11:55.143696-07:00,"(4.0, 1.0)",151.82999999999998
1079,nav,9,4,right,2021-10-07 14:11:55.293488-07:00,"(5.0, 1.0)",149.792
1080,nav,9,4,down,2021-10-07 14:11:55.590941-07:00,"(5.0, 2.0)",297.45300000000003
1081,nav,9,4,down,2021-10-07 14:11:55.718145-07:00,"(5.0, 3.0)",127.20400000000001
1082,nav,9,4,left,2021-10-07 14:11:55.974208-07:00,"(4.0, 3.0)",256.063
1083,nav,9,4,left,2021-10-07 14:11:56.128665-07:00,"(3.0, 3.0)",154.45700000000002
1084,nav,9,4,down,2021-10-07 14:11:56.578050-07:00,"(3.0, 4.0)",449.385
1085,nav,9,4,down,2021-10-07 14:11:56.731258-07:00,"(3.0, 5.0)",153.208
1086,nav,9,4,right,2021-10-07 14:11:56.937712-07:00,"(4.0, 5.0)",206.454
1087,nav,9,4,right,2021-10-07 14:11:57.130333-07:00,"(5.0, 5.0)",192.62099999999998
1088,nav,9,4,right,2021-10-07 14:11:57.589118-07:00,"(6.0, 5.0)",458.785
1089,nav,9,4,down,2021-10-07 14:11:57.827850-07:00,"(6.0, 6.0)",238.732
1090,nav,9,4,down,2021-10-07 14:11:57.987584-07:00,"(6.0, 7.0)",159.73399999999998
1091,nav,9,4,right,2021-10-07 14:11:58.252587-07:00,"(7.0, 7.0)",265.003
1092,nav,9,4,right,2021-10-07 14:11:58.425821-07:00,"(8.0, 7.0)",173.234
1093,nav,9,4,up,2021-10-07 14:11:58.714665-07:00,"(8.0, 6.0)",288.844
1094,nav,9,4,up,2021-10-07 14:11:58.897570-07:00,"(8.0, 5.0)",182.905
1095,nav,9,5,start,2021-10-07 14:11:59.979222-07:00,"(1.0, 1.0)",0
1096,nav,9,5,right,2021-10-07 14:12:00.460888-07:00,"(2.0, 1.0)",481.666
1097,nav,9,5,right,2021-10-07 14:12:00.649082-07:00,"(3.0, 1.0)",188.194
1098,nav,9,5,right,2021-10-07 14:12:00.795752-07:00,"(4.0, 1.0)",146.67
1099,nav,9,5,right,2021-10-07 14:12:01.280944-07:00,"(5.0, 1.0)",485.192
1100,nav,9,5,down,2021-10-07 14:12:01.662042-07:00,"(5.0, 2.0)",381.098
1101,nav,9,5,down,2021-10-07 14:12:01.918223-07:00,"(5.0, 3.0)",256.181
1102,nav,9,5,left,2021-10-07 14:12:02.216567-07:00,"(4.0, 3.0)",298.344
1103,nav,9,5,left,2021-10-07 14:12:02.394728-07:00,"(3.0, 3.0)",178.161
1104,nav,9,5,left,2021-10-07 14:12:02.790218-07:00,"(2.0, 3.0)",395.49
1105,nav,9,6,start,2021-10-07 14:12:03.859767-07:00,"(1.0, 1.0)",0
1106,nav,9,6,right,2021-10-07 14:12:04.669386-07:00,"(2.0, 1.0)",809.619
1107,nav,9,6,right,2021-10-07 14:12:04.997106-07:00,"(3.0, 1.0)",327.72
1108,nav,9,6,right,2021-10-07 14:12:05.159830-07:00,"(4.0, 1.0)",162.72400000000002
1109,nav,9,6,right,2021-10-07 14:12:05.809452-07:00,"(5.0, 1.0)",649.6220000000001
1110,nav,9,6,down,2021-10-07 14:12:06.097055-07:00,"(5.0, 2.0)",287.603
1111,nav,9,6,down,2021-10-07 14:12:06.248403-07:00,"(5.0, 3.0)",151.348
1112,nav,9,6,down,2021-10-07 14:12:06.874146-07:00,"(5.0, 4.0)",625.743
1113,nav,9,6,up,2021-10-07 14:12:07.371791-07:00,"(5.0, 3.0)",497.645
1114,nav,9,6,down,2021-10-07 14:12:08.010333-07:00,"(5.0, 4.0)",638.542
1115,nav,9,6,down,2021-10-07 14:12:08.483418-07:00,"(5.0, 5.0)",473.085
1116,nav,9,6,down,2021-10-07 14:12:08.653490-07:00,"(5.0, 6.0)",170.072
1117,nav,9,6,left,2021-10-07 14:12:08.882276-07:00,"(4.0, 6.0)",228.786
1118,nav,9,7,start,2021-10-07 14:12:09.978400-07:00,"(1.0, 1.0)",0
1119,nav,9,7,right,2021-10-07 14:12:10.525675-07:00,"(2.0, 1.0)",547.275
1120,nav,9,7,right,2021-10-07 14:12:10.689296-07:00,"(3.0, 1.0)",163.62099999999998
1121,nav,9,7,right,2021-10-07 14:12:10.845493-07:00,"(4.0, 1.0)",156.197
1122,nav,9,7,right,2021-10-07 14:12:10.991562-07:00,"(5.0, 1.0)",146.06900000000002
1123,nav,9,7,right,2021-10-07 14:12:11.107901-07:00,"(6.0, 1.0)",116.339
1124,nav,9,7,down,2021-10-07 14:12:11.485389-07:00,"(6.0, 2.0)",377.488
1125,nav,9,7,down,2021-10-07 14:12:11.623800-07:00,"(6.0, 3.0)",138.411
1126,nav,9,7,left,2021-10-07 14:12:11.886180-07:00,"(5.0, 3.0)",262.38
1127,nav,9,7,left,2021-10-07 14:12:12.069638-07:00,"(4.0, 3.0)",183.458
1128,nav,9,7,left,2021-10-07 14:12:12.205011-07:00,"(3.0, 3.0)",135.373
1129,nav,9,7,down,2021-10-07 14:12:12.736945-07:00,"(3.0, 4.0)",531.934
1130,nav,9,7,down,2021-10-07 14:12:12.910493-07:00,"(3.0, 5.0)",173.548
1131,nav,9,7,right,2021-10-07 14:12:13.299786-07:00,"(4.0, 5.0)",389.293
1132,nav,9,7,right,2021-10-07 14:12:13.446249-07:00,"(5.0, 5.0)",146.46300000000002
1133,nav,9,7,right,2021-10-07 14:12:13.606375-07:00,"(6.0, 5.0)",160.12599999999998
1134,nav,9,7,right,2021-10-07 14:12:13.793294-07:00,"(7.0, 5.0)",186.919
1135,nav,9,7,down,2021-10-07 14:12:14.161983-07:00,"(7.0, 6.0)",368.68899999999996
1136,nav,9,7,down,2021-10-07 14:12:14.320817-07:00,"(7.0, 7.0)",158.834
1137,nav,9,7,right,2021-10-07 14:12:14.655750-07:00,"(8.0, 7.0)",334.933
1138,nav,9,7,right,2021-10-07 14:12:14.817965-07:00,"(9.0, 7.0)",162.215
1139,nav,9,7,up,2021-10-07 14:12:15.049100-07:00,"(9.0, 6.0)",231.13500000000002
1140,nav,9,8,start,2021-10-07 14:12:16.131624-07:00,"(1.0, 1.0)",0
1141,nav,9,8,right,2021-10-07 14:12:16.759395-07:00,"(2.0, 1.0)",627.771
1142,nav,9,8,down,2021-10-07 14:12:17.048100-07:00,"(2.0, 2.0)",288.705
1143,nav,9,8,down,2021-10-07 14:12:17.206508-07:00,"(2.0, 3.0)",158.408
1144,nav,9,8,left,2021-10-07 14:12:17.426288-07:00,"(1.0, 3.0)",219.78
1145,nav,9,8,down,2021-10-07 14:12:17.665630-07:00,"(1.0, 4.0)",239.342
1146,nav,9,8,down,2021-10-07 14:12:17.829687-07:00,"(1.0, 5.0)",164.05700000000002
1147,nav,9,8,right,2021-10-07 14:12:18.033514-07:00,"(2.0, 5.0)",203.827
1148,nav,9,8,right,2021-10-07 14:12:18.221330-07:00,"(3.0, 5.0)",187.816
1149,nav,9,8,right,2021-10-07 14:12:18.393388-07:00,"(4.0, 5.0)",172.058
1150,nav,9,8,up,2021-10-07 14:12:18.651417-07:00,"(4.0, 4.0)",258.029
1151,nav,9,8,up,2021-10-07 14:12:18.816119-07:00,"(4.0, 3.0)",164.702
1152,nav,9,8,up,2021-10-07 14:12:18.987524-07:00,"(4.0, 2.0)",171.405
1153,quiz,9,1,,,"(5.0, 5.0)",
1154,quiz,9,2,,,"(3.0, 5.0)",
1155,quiz,9,3,,,"(3.0, 4.0)",
1156,quiz,9,4,,,"(5.0, 4.0)",
1157,quiz,9,5,,,"(4.0, 5.0)",
1158,quiz,9,6,,,"(4.0, 4.0)",
1159,quiz,9,7,,,"(7.0, 4.0)",
1160,quiz,9,8,,,"(6.0, 4.0)",
